sheet_sub_id,width,height,webaudio,browser,browser_version,mobile,os,fullscreen,vsync_rate,webcam,microphone,trial_type,trial_index,time_elapsed,internal_node_id,subject_id,study_id,session_id,date_time,rt,stimulus,response,experiment
0,1917,1861,TRUE,chrome,107.00.00,FALSE,Mac OS,TRUE,30.39.00,TRUE,TRUE,browser-check,0,2007,0.0-0.0,,,,"10/11/2022, 14:13:27",,,,
0,,,,,,,,,,,,html-button-response,1,4236,0.0-1.0,,,,"10/11/2022, 14:13:29",2207,,0,
0,,,,,,,,,,,,html-button-response,2,5643,0.0-2.0,,,,"10/11/2022, 14:13:31",1405,<h2> Are you using headphones right now? </h2>,0,
0,,,,,,,,,,,,html-button-response,3,6804,0.0-3.0,,,,"10/11/2022, 14:13:32",1159,<h2> Were you wearing <b> headphones </b> for the <b>entire duration </b> of this test? </h2>,0,
1,1917,1861,TRUE,chrome,107.00.00,FALSE,Mac OS,TRUE,30.38.00,TRUE,TRUE,browser-check,0,2027,0.0-0.0,,,,"10/11/2022, 14:13:41",,,,1
1,,,,,,,,,,,,html-button-response,1,3815,0.0-1.0,,,,"10/11/2022, 14:13:43","1783"",",,,1
1,,,,,,,,,,,,html-button-response,2,5142,0.0-2.0,,,,"10/11/2022, 14:13:44",1325,<h2> Are you using headphones right now? </h2>,0,1
2,837,1922,TRUE,chrome,107.00.00,FALSE,Mac OS,TRUE,30.38.00,TRUE,TRUE,browser-check,0,2031,0.0-0.0,,,,"10/11/2022, 14:32:05",,,,1
3,2142,1922,TRUE,chrome,107.00.00,FALSE,Mac OS,TRUE,30.39.00,TRUE,TRUE,browser-check,0,2034,0.0-0.0,608718e0a8520f7baac735e7,636c51db8e68f986cf4ab8c9,0d87pgmjk0vc,"10/11/2022, 14:32:11",,,,1
3,,,,,,,,,,,,html-button-response,1,4964,0.0-1.0,608718e0a8520f7baac735e7,636c51db8e68f986cf4ab8c9,0d87pgmjk0vc,"10/11/2022, 14:32:14","2925"",",,,1
3,,,,,,,,,,,,html-button-response,2,6651,0.0-2.0,608718e0a8520f7baac735e7,636c51db8e68f986cf4ab8c9,0d87pgmjk0vc,"10/11/2022, 14:32:16",1685,<h2> Are you using headphones right now? </h2>,0,1
3,,,,,,,,,,,,video-button-response,3,43684,0.0-3.0,608718e0a8520f7baac735e7,636c51db8e68f986cf4ab8c9,0d87pgmjk0vc,,37028,"[""""tsg_comb/TestSeq001_5_GDDW_000_GD_v13_000_A.mp4""""]",4,1
4,1798,1753,TRUE,chrome,107.00.00,FALSE,Mac OS,TRUE,30.07.00,TRUE,TRUE,browser-check,0,2021,0.0-0.0,,,,"10/11/2022, 14:38:06",,,,
5,1798,1753,TRUE,chrome,107.00.00,FALSE,Mac OS,TRUE,30.37.00,TRUE,TRUE,browser-check,0,2005,0.0-0.0,,,,"10/11/2022, 14:40:41",,,,
6,1798,1753,TRUE,chrome,107.00.00,FALSE,Mac OS,TRUE,30,TRUE,TRUE,browser-check,0,2019,0.0-0.0,608718e0a8520f7baac735e7,636c51db8e68f986cf4ab8c9,0tneygbdrzn,"10/11/2022, 14:40:57",,,,1
6,,,,,,,,,,,,html-button-response,1,5252,0.0-1.0,608718e0a8520f7baac735e7,636c51db8e68f986cf4ab8c9,0tneygbdrzn,"10/11/2022, 14:41:00","3228"",",,,1
6,,,,,,,,,,,,html-button-response,2,6812,0.0-2.0,608718e0a8520f7baac735e7,636c51db8e68f986cf4ab8c9,0tneygbdrzn,"10/11/2022, 14:41:02",1558,<h2> Are you using headphones right now? </h2>,0,1
6,,,,,,,,,,,,video-button-response,3,24125,0.0-3.0,608718e0a8520f7baac735e7,636c51db8e68f986cf4ab8c9,0tneygbdrzn,,17309,"[""""tsg_comb/TestSeq001_5_GDDW_000_GT_A.mp4""""]",4,1
6,,,,,,,,,,,,video-button-response,4,29967,0.0-4.0,608718e0a8520f7baac735e7,636c51db8e68f986cf4ab8c9,0tneygbdrzn,,5838,"[""""tsg_comb/TestSeq004_5_GD_v13_000_SG_000_B.mp4""""]",4,1
6,,,,,,,,,,,,video-button-response,5,47461,0.0-5.0,608718e0a8520f7baac735e7,636c51db8e68f986cf4ab8c9,0tneygbdrzn,,17490,"[""""tsg_comb/TestSeq003_4_GD_v13_000_SG_000_B.mp4""""]",4,1
6,,,,,,,,,,,,video-button-response,6,57077,0.0-6.0,608718e0a8520f7baac735e7,636c51db8e68f986cf4ab8c9,0tneygbdrzn,,9612,"[""""tsg_comb/TestSeq002_2_GD_v13_000_GT_A.mp4""""]",4,1
6,,,,,,,,,,,,video-button-response,7,60460,0.0-7.0,608718e0a8520f7baac735e7,636c51db8e68f986cf4ab8c9,0tneygbdrzn,,3380,"[""""tsg_comb/TestSeq001_2_GT_SG_000_B.mp4""""]",4,1
6,,,,,,,,,,,,video-button-response,8,64964,0.0-8.0,608718e0a8520f7baac735e7,636c51db8e68f986cf4ab8c9,0tneygbdrzn,,4500,"[""""tsg_comb/TestSeq003_2_GDDW_000_GD_v13_000_B.mp4""""]",4,1
6,,,,,,,,,,,,video-button-response,9,68557,0.0-9.0,608718e0a8520f7baac735e7,636c51db8e68f986cf4ab8c9,0tneygbdrzn,,3590,"[""""tsg_comb/TestSeq004_3_GDDW_000_GD_v13_000_B.mp4""""]",4,1
6,,,,,,,,,,,,video-button-response,10,71966,0.0-10.0,608718e0a8520f7baac735e7,636c51db8e68f986cf4ab8c9,0tneygbdrzn,,3406,"[""""tsg_comb/TestSeq001_3_GDDW_000_GT_A.mp4""""]",4,1
6,,,,,,,,,,,,video-button-response,11,75591,0.0-11.0,608718e0a8520f7baac735e7,636c51db8e68f986cf4ab8c9,0tneygbdrzn,,3620,"[""""tsg_comb/TestSeq005_3_GDDW_000_GT_B.mp4""""]",4,1
6,,,,,,,,,,,,video-button-response,12,79645,0.0-12.0,608718e0a8520f7baac735e7,636c51db8e68f986cf4ab8c9,0tneygbdrzn,,4050,"[""""tsg_comb/TestSeq003_0_GDDW_000_GT_B.mp4""""]",4,1
6,,,,,,,,,,,,video-button-response,13,83277,0.0-13.0,608718e0a8520f7baac735e7,636c51db8e68f986cf4ab8c9,0tneygbdrzn,,3629,"[""""tsg_comb/TestSeq004_7_GD_v13_000_GT_B.mp4""""]",4,1
6,,,,,,,,,,,,video-button-response,14,86782,0.0-14.0,608718e0a8520f7baac735e7,636c51db8e68f986cf4ab8c9,0tneygbdrzn,,3502,"[""""tsg_comb/TestSeq001_4_GD_v13_000_SG_000_B.mp4""""]",4,1
6,,,,,,,,,,,,video-button-response,15,90462,0.0-15.0,608718e0a8520f7baac735e7,636c51db8e68f986cf4ab8c9,0tneygbdrzn,,3676,"[""""tsg_comb/TestSeq006_1_GD_v13_000_SG_000_A.mp4""""]",4,1
6,,,,,,,,,,,,video-button-response,16,93990,0.0-16.0,608718e0a8520f7baac735e7,636c51db8e68f986cf4ab8c9,0tneygbdrzn,,3524,"[""""tsg_comb/TestSeq001_0_GDDW_000_SG_000_B.mp4""""]",4,1
6,,,,,,,,,,,,video-button-response,17,97685,0.0-17.0,608718e0a8520f7baac735e7,636c51db8e68f986cf4ab8c9,0tneygbdrzn,,3690,"[""""tsg_comb/TestSeq002_1_GD_v13_000_SG_000_B.mp4""""]",4,1
6,,,,,,,,,,,,video-button-response,18,101374,0.0-18.0,608718e0a8520f7baac735e7,636c51db8e68f986cf4ab8c9,0tneygbdrzn,,3684,"[""""tsg_comb/TestSeq004_1_GDDW_000_SG_000_B.mp4""""]",4,1
6,,,,,,,,,,,,video-button-response,19,105406,0.0-19.0,608718e0a8520f7baac735e7,636c51db8e68f986cf4ab8c9,0tneygbdrzn,,4028,"[""""tsg_comb/TestSeq004_2_GT_SG_000_A.mp4""""]",4,1
6,,,,,,,,,,,,video-button-response,20,109028,0.0-20.0,608718e0a8520f7baac735e7,636c51db8e68f986cf4ab8c9,0tneygbdrzn,,3618,"[""""tsg_comb/TestSeq005_2_GDDW_000_SG_000_A.mp4""""]",4,1
6,,,,,,,,,,,,video-button-response,21,113358,0.0-21.0,608718e0a8520f7baac735e7,636c51db8e68f986cf4ab8c9,0tneygbdrzn,,4327,"[""""tsg_comb/TestSeq001_6_GDDW_000_SG_000_B.mp4""""]",4,1
6,,,,,,,,,,,,video-button-response,22,118029,0.0-22.0,608718e0a8520f7baac735e7,636c51db8e68f986cf4ab8c9,0tneygbdrzn,,4667,"[""""tsg_comb/TestSeq003_3_GD_v13_000_GT_A.mp4""""]",4,1
6,,,,,,,,,,,,video-button-response,23,122726,0.0-23.0,608718e0a8520f7baac735e7,636c51db8e68f986cf4ab8c9,0tneygbdrzn,,4692,"[""""tsg_comb/TestSeq006_0_GT_SG_000_B.mp4""""]",4,1
6,,,,,,,,,,,,video-button-response,24,126965,0.0-24.0,608718e0a8520f7baac735e7,636c51db8e68f986cf4ab8c9,0tneygbdrzn,,4234,"[""""tsg_comb/TestSeq002_3_GD_v13_000_GT_B.mp4""""]",4,1
6,,,,,,,,,,,,video-button-response,25,131038,0.0-25.0,608718e0a8520f7baac735e7,636c51db8e68f986cf4ab8c9,0tneygbdrzn,,4069,"[""""tsg_comb/TestSeq002_4_GD_v13_000_SG_000_A.mp4""""]",4,1
6,,,,,,,,,,,,video-button-response,26,135613,0.0-26.0,608718e0a8520f7baac735e7,636c51db8e68f986cf4ab8c9,0tneygbdrzn,,4570,"[""""tsg_comb/TestSeq003_5_GDDW_000_SG_000_A.mp4""""]",4,1
6,,,,,,,,,,,,video-button-response,27,139181,0.0-27.0,608718e0a8520f7baac735e7,636c51db8e68f986cf4ab8c9,0tneygbdrzn,,3565,"[""""tsg_comb/TestSeq004_4_GDDW_000_GD_v13_000_A.mp4""""]",4,1
6,,,,,,,,,,,,video-button-response,28,142797,0.0-28.0,608718e0a8520f7baac735e7,636c51db8e68f986cf4ab8c9,0tneygbdrzn,,3612,"[""""tsg_comb/TestSeq002_0_GT_SG_000_A.mp4""""]",4,1
6,,,,,,,,,,,,video-button-response,29,146677,0.0-29.0,608718e0a8520f7baac735e7,636c51db8e68f986cf4ab8c9,0tneygbdrzn,,3877,"[""""tsg_comb/TestSeq005_1_GD_v13_000_GT_B.mp4""""]",4,1
6,,,,,,,,,,,,video-button-response,30,150925,0.0-30.0,608718e0a8520f7baac735e7,636c51db8e68f986cf4ab8c9,0tneygbdrzn,,4245,"[""""tsg_comb/TestSeq003_6_GDDW_000_GT_B.mp4""""]",4,1
6,,,,,,,,,,,,video-button-response,31,154543,0.0-31.0,608718e0a8520f7baac735e7,636c51db8e68f986cf4ab8c9,0tneygbdrzn,,3614,"[""""tsg_comb/TestSeq004_0_GDDW_000_GD_v13_000_A.mp4""""]",4,1
6,,,,,,,,,,,,video-button-response,32,158285,0.0-32.0,608718e0a8520f7baac735e7,636c51db8e68f986cf4ab8c9,0tneygbdrzn,,3738,"[""""tsg_comb/TestSeq003_1_GT_SG_000_A.mp4""""]",4,1
6,,,,,,,,,,,,video-button-response,33,162254,0.0-33.0,608718e0a8520f7baac735e7,636c51db8e68f986cf4ab8c9,0tneygbdrzn,,3966,"[""""tsg_comb/TestSeq005_0_GDDW_000_SG_000_A.mp4""""]",4,1
6,,,,,,,,,,,,video-button-response,34,166724,0.0-34.0,608718e0a8520f7baac735e7,636c51db8e68f986cf4ab8c9,0tneygbdrzn,,4466,"[""""tsg_comb/TestSeq005_4_GT_SG_000_A.mp4""""]",4,1
6,,,,,,,,,,,,video-button-response,35,171134,0.0-35.0,608718e0a8520f7baac735e7,636c51db8e68f986cf4ab8c9,0tneygbdrzn,,4406,"[""""tsg_comb/TestSeq002_6_GD_v13_000_GT_A.mp4""""]",4,1
6,,,,,,,,,,,,video-button-response,36,174678,0.0-36.0,608718e0a8520f7baac735e7,636c51db8e68f986cf4ab8c9,0tneygbdrzn,,3538,"[""""tsg_comb/TestSeq001_1_GDDW_000_GT_A.mp4""""]",4,1
6,,,,,,,,,,,,video-button-response,37,178838,0.0-37.0,608718e0a8520f7baac735e7,636c51db8e68f986cf4ab8c9,0tneygbdrzn,,4156,"[""""tsg_comb/TestSeq002_5_GDDW_000_GD_v13_000_B.mp4""""]",4,1
6,,,,,,,,,,,,video-button-response,38,183125,0.0-38.0,608718e0a8520f7baac735e7,636c51db8e68f986cf4ab8c9,0tneygbdrzn,,4282,"[""""tsg_comb/TestSeq004_6_GDDW_000_GD_v13_000_A.mp4""""]",4,1
7,1233,913,TRUE,edge-chromium,107.23.38,FALSE,Windows 10,TRUE,65.23.00,FALSE,FALSE,browser-check,0,947,0.0-0.0,5f97044125b2c2058d46f31b,636c51db8e68f986cf4ab8c9,636d00f207250ca5710bb502,"10/11/2022, 13:47:44",,,,1
7,,,,,,,,,,,,html-button-response,1,5478,0.0-1.0,5f97044125b2c2058d46f31b,636c51db8e68f986cf4ab8c9,636d00f207250ca5710bb502,"10/11/2022, 13:47:49","4517"",",,,1
8,1920,955,TRUE,firefox,106.00.00,FALSE,Windows 10,TRUE,144.58.00,TRUE,TRUE,browser-check,0,424,0.0-0.0,634da87b4998f19b0fc14703,636c51db8e68f986cf4ab8c9,636d01fca7aae7c41f256066,"10/11/2022, 13:52:09",,,,1
9,1366,625,TRUE,chrome,107.00.00,FALSE,Windows 10,TRUE,57.33.00,TRUE,TRUE,browser-check,0,1096,0.0-0.0,5ba1a06b0686690001f514ae,636c51db8e68f986cf4ab8c9,636d01f95ac9d9c373872443,"10/11/2022, 13:52:27",,,,1
10,1280,609,TRUE,chrome,107.00.00,FALSE,Windows 10,TRUE,61.15.00,TRUE,TRUE,browser-check,0,1004,0.0-0.0,60e89d7bb77ce411162d4b9d,636c51db8e68f986cf4ab8c9,636d0208f554429e6f30b905,"10/11/2022, 13:52:31",,,,1
10,,,,,,,,,,,,html-button-response,1,23099,0.0-1.0,634da87b4998f19b0fc14703,636c51db8e68f986cf4ab8c9,636d01fca7aae7c41f256066,"10/11/2022, 13:52:32","22661"",",,,1
10,,,,,,,,,,,,html-button-response,2,24208,0.0-2.0,634da87b4998f19b0fc14703,636c51db8e68f986cf4ab8c9,636d01fca7aae7c41f256066,"10/11/2022, 13:52:33",1106,<h2> Are you using headphones right now? </h2>,0,1
11,1912,929,TRUE,chrome,107.00.00,FALSE,Windows 8,TRUE,60.16.00,TRUE,TRUE,browser-check,0,1013,0.0-0.0,5c732f631388ff0001100e6d,636c51db8e68f986cf4ab8c9,636d021e64b7ecce95355db3,"11/10/2022, 8:54:31 AM",,,,1
11,,,,,,,,,,,,html-button-response,1,19712,0.0-1.0,60e89d7bb77ce411162d4b9d,636c51db8e68f986cf4ab8c9,636d0208f554429e6f30b905,"10/11/2022, 13:52:49","18692"",",,,1
11,,,,,,,,,,,,html-button-response,2,20855,0.0-2.0,60e89d7bb77ce411162d4b9d,636c51db8e68f986cf4ab8c9,636d0208f554429e6f30b905,"10/11/2022, 13:52:51",1140,<h2> Are you using headphones right now? </h2>,0,1
12,1440,837,TRUE,safari,13.01.02,FALSE,Mac OS,TRUE,59.17.00,TRUE,TRUE,browser-check,0,1024,0.0-0.0,5ead6e3b3bba060402d296d6,636c51db8e68f986cf4ab8c9,636d0231733c72b4f90397ce,"10/11/2022, 13:52:56",,,,1
12,,,,,,,,,,,,html-button-response,1,6330,0.0-1.0,5ead6e3b3bba060402d296d6,636c51db8e68f986cf4ab8c9,636d0231733c72b4f90397ce,"10/11/2022, 13:53:02","5296"",",,,1
12,,,,,,,,,,,,video-button-response,3,55142,0.0-3.0,634da87b4998f19b0fc14703,636c51db8e68f986cf4ab8c9,636d01fca7aae7c41f256066,,30919,"[""""tsg_comb/TestSeq001_0_GT_SG_000_B.mp4""""]",4,1
12,,,,,,,,,,,,html-button-response,1,43164,0.0-1.0,5ba1a06b0686690001f514ae,636c51db8e68f986cf4ab8c9,636d01f95ac9d9c373872443,"10/11/2022, 13:53:09","41907"",",,,1
12,,,,,,,,,,,,video-button-response,3,42743,0.0-3.0,60e89d7bb77ce411162d4b9d,636c51db8e68f986cf4ab8c9,636d0208f554429e6f30b905,,21884,"[""""tsg_comb/TestSeq001_6_GD_v13_000_SG_000_B.mp4""""]",4,1
12,,,,,,,,,,,,video-button-response,4,79568,0.0-4.0,634da87b4998f19b0fc14703,636c51db8e68f986cf4ab8c9,636d01fca7aae7c41f256066,,24421,"[""""tsg_comb/TestSeq005_2_GD_v13_000_GT_A.mp4""""]",3,1
12,,,,,,,,,,,,video-button-response,4,64384,0.0-4.0,60e89d7bb77ce411162d4b9d,636c51db8e68f986cf4ab8c9,636d0208f554429e6f30b905,,21636,"[""""tsg_comb/TestSeq004_7_GDDW_000_GT_B.mp4""""]",1,1
13,1440,788,TRUE,chrome,88.11.20,FALSE,Mac OS,TRUE,59.43.00,TRUE,TRUE,browser-check,0,1277,0.0-0.0,6016d442222eb48891237986,636c51db8e68f986cf4ab8c9,636d025ac60be5e8993b95f6,"11/10/2022, 1:53:37 PM",,,,1
13,,,,,,,,,,,,html-button-response,1,16316,0.0-1.0,6016d442222eb48891237986,636c51db8e68f986cf4ab8c9,636d025ac60be5e8993b95f6,"11/10/2022, 1:53:52 PM","15006"",",,,1
13,,,,,,,,,,,,video-button-response,5,103551,0.0-5.0,634da87b4998f19b0fc14703,636c51db8e68f986cf4ab8c9,636d01fca7aae7c41f256066,,23976,"[""""tsg_comb/TestSeq004_1_GD_v13_000_SG_000_B.mp4""""]",2,1
14,1280,800,TRUE,chrome,107.00.00,FALSE,Mac OS,TRUE,61.46.00,TRUE,TRUE,browser-check,0,1026,0.0-0.0,60f031edf71a4d97b4c50874,636c51db8e68f986cf4ab8c9,636d0274f8ed135d607c9afb,"10/11/2022, 13:54:06",,,,1
13,,,,,,,,,,,,html-button-response,2,29345,0.0-2.0,6016d442222eb48891237986,636c51db8e68f986cf4ab8c9,636d025ac60be5e8993b95f6,"11/10/2022, 1:54:05 PM",13025,<h2> Are you using headphones right now? </h2>,0,1
14,,,,,,,,,,,,html-button-response,2,99314,0.0-2.0,5ba1a06b0686690001f514ae,636c51db8e68f986cf4ab8c9,636d01f95ac9d9c373872443,"10/11/2022, 13:54:06",56141,<h2> Are you using headphones right now? </h2>,0,1
14,,,,,,,,,,,,video-button-response,6,126033,0.0-6.0,634da87b4998f19b0fc14703,636c51db8e68f986cf4ab8c9,636d01fca7aae7c41f256066,,22476,"[""""tsg_comb/TestSeq004_6_GDDW_000_GD_v13_000_A.mp4""""]",4,1
14,,,,,,,,,,,,video-button-response,5,107392,0.0-5.0,60e89d7bb77ce411162d4b9d,636c51db8e68f986cf4ab8c9,636d0208f554429e6f30b905,,43004,"[""""tsg_comb/TestSeq001_1_GD_v13_000_SG_000_A.mp4""""]",2,1
14,,,,,,,,,,,,video-button-response,3,51067,0.0-3.0,6016d442222eb48891237986,636c51db8e68f986cf4ab8c9,636d025ac60be5e8993b95f6,,21711,"[""""tsg_comb/TestSeq003_6_GDDW_000_GD_v13_000_B.mp4""""]",0,1
14,,,,,,,,,,,,video-button-response,6,129128,0.0-6.0,60e89d7bb77ce411162d4b9d,636c51db8e68f986cf4ab8c9,636d0208f554429e6f30b905,,21732,"[""""tsg_comb/TestSeq002_6_GDDW_000_GT_A.mp4""""]",0,1
14,,,,,,,,,,,,video-button-response,7,149792,0.0-7.0,634da87b4998f19b0fc14703,636c51db8e68f986cf4ab8c9,636d01fca7aae7c41f256066,,23755,"[""""tsg_comb/TestSeq005_0_GD_v13_000_GT_A.mp4""""]",1,1
14,,,,,,,,,,,,video-button-response,4,72351,0.0-4.0,6016d442222eb48891237986,636c51db8e68f986cf4ab8c9,636d025ac60be5e8993b95f6,,21276,"[""""tsg_comb/TestSeq004_1_GD_v13_000_GT_B.mp4""""]",4,1
14,,,,,,,,,,,,video-button-response,7,150520,0.0-7.0,60e89d7bb77ce411162d4b9d,636c51db8e68f986cf4ab8c9,636d0208f554429e6f30b905,,21388,"[""""tsg_comb/TestSeq001_2_GDDW_000_GT_B.mp4""""]",0,1
15,1280,609,TRUE,chrome,107.00.00,FALSE,Windows 10,TRUE,60.41.00,TRUE,TRUE,browser-check,0,1014,0.0-0.0,5f0adabb2e2b8a000ba1dcf7,636c51db8e68f986cf4ab8c9,636d02a9b65f5d4cc148d072,"11/10/2022, 1:55:05 PM",,,,1
14,,,,,,,,,,,,video-button-response,8,173526,0.0-8.0,634da87b4998f19b0fc14703,636c51db8e68f986cf4ab8c9,636d01fca7aae7c41f256066,,23726,"[""""tsg_comb/TestSeq004_4_GD_v13_000_SG_000_A.mp4""""]",1,1
14,,,,,,,,,,,,video-button-response,3,159309,0.0-3.0,5ba1a06b0686690001f514ae,636c51db8e68f986cf4ab8c9,636d01f95ac9d9c373872443,,59940,"[""""tsg_comb/TestSeq006_1_GD_v13_000_SG_000_A.mp4""""]",0,1
14,,,,,,,,,,,,html-button-response,1,3060,0.0-1.0,5f0adabb2e2b8a000ba1dcf7,636c51db8e68f986cf4ab8c9,636d02a9b65f5d4cc148d072,"11/10/2022, 1:55:07 PM","2027"",",,,1
14,,,,,,,,,,,,html-button-response,2,4333,0.0-2.0,5f0adabb2e2b8a000ba1dcf7,636c51db8e68f986cf4ab8c9,636d02a9b65f5d4cc148d072,"11/10/2022, 1:55:08 PM",1269,<h2> Are you using headphones right now? </h2>,0,1
15,1440,821,TRUE,chrome,104.00.00,FALSE,Mac OS,TRUE,60.38.00,TRUE,TRUE,browser-check,0,1022,0.0-0.0,6148f390b233d5c1d397fd45,636c51db8e68f986cf4ab8c9,636d02ba85e871fe85073cd3,"10/11/2022, 13:55:17",,,,1
15,,,,,,,,,,,,html-button-response,1,4256,0.0-1.0,6148f390b233d5c1d397fd45,636c51db8e68f986cf4ab8c9,636d02ba85e871fe85073cd3,"10/11/2022, 13:55:20","3210"",",,,1
15,,,,,,,,,,,,video-button-response,8,172312,0.0-8.0,60e89d7bb77ce411162d4b9d,636c51db8e68f986cf4ab8c9,636d0208f554429e6f30b905,,21788,"[""""tsg_comb/TestSeq001_0_GDDW_000_SG_000_B.mp4""""]",0,1
15,,,,,,,,,,,,html-button-response,2,7922,0.0-2.0,6148f390b233d5c1d397fd45,636c51db8e68f986cf4ab8c9,636d02ba85e871fe85073cd3,"10/11/2022, 13:55:24",3662,<h2> Are you using headphones right now? </h2>,0,1
15,,,,,,,,,,,,video-button-response,9,195654,0.0-9.0,634da87b4998f19b0fc14703,636c51db8e68f986cf4ab8c9,636d01fca7aae7c41f256066,,22122,"[""""tsg_comb/TestSeq001_4_GDDW_000_GT_B.mp4""""]",0,1
16,1280,577,TRUE,chrome,107.00.00,FALSE,Windows 10,TRUE,58.43.00,TRUE,TRUE,browser-check,0,1085,0.0-0.0,60fd02cf4e2e84d77af996bb,636c51db8e68f986cf4ab8c9,636d02c672e400bcc57c9ae3,"10/11/2022, 13:55:29",,,,1
15,,,,,,,,,,,,video-button-response,4,182394,0.0-4.0,5ba1a06b0686690001f514ae,636c51db8e68f986cf4ab8c9,636d01f95ac9d9c373872443,,23072,"[""""tsg_comb/TestSeq002_1_GDDW_000_GD_v13_000_B.mp4""""]",0,1
16,1873,969,TRUE,edge-chromium,106.22.50,FALSE,Windows 10,TRUE,146.16.00,TRUE,TRUE,browser-check,0,424,0.0-0.0,62e94c2fc95246b070e645cf,636c51db8e68f986cf4ab8c9,636d02c9e162209e439254db,"10/11/2022, 13:55:38",,,,1
15,,,,,,,,,,,,video-button-response,3,30671,0.0-3.0,5f0adabb2e2b8a000ba1dcf7,636c51db8e68f986cf4ab8c9,636d02a9b65f5d4cc148d072,,26329,"[""""tsg_comb/TestSeq006_0_GD_v13_000_GT_B.mp4""""]",0,1
15,,,,,,,,,,,,video-button-response,9,194617,0.0-9.0,60e89d7bb77ce411162d4b9d,636c51db8e68f986cf4ab8c9,636d0208f554429e6f30b905,,22301,"[""""tsg_comb/TestSeq004_1_GDDW_000_GD_v13_000_B.mp4""""]",3,1
15,,,,,,,,,,,,html-button-response,1,15659,0.0-1.0,60fd02cf4e2e84d77af996bb,636c51db8e68f986cf4ab8c9,636d02c672e400bcc57c9ae3,"10/11/2022, 13:55:43","14543"",",,,1
15,,,,,,,,,,,,video-button-response,10,218431,0.0-10.0,634da87b4998f19b0fc14703,636c51db8e68f986cf4ab8c9,636d01fca7aae7c41f256066,,22772,"[""""tsg_comb/TestSeq003_5_GDDW_000_GD_v13_000_A.mp4""""]",3,1
15,,,,,,,,,,,,video-button-response,3,32910,0.0-3.0,6148f390b233d5c1d397fd45,636c51db8e68f986cf4ab8c9,636d02ba85e871fe85073cd3,,24970,"[""""tsg_comb/TestSeq005_3_GDDW_000_SG_000_B.mp4""""]",0,1
15,,,,,,,,,,,,video-button-response,5,205574,0.0-5.0,5ba1a06b0686690001f514ae,636c51db8e68f986cf4ab8c9,636d01f95ac9d9c373872443,,23167,"[""""tsg_comb/TestSeq003_4_GT_SG_000_B.mp4""""]",4,1
15,,,,,,,,,,,,video-button-response,4,53072,0.0-4.0,5f0adabb2e2b8a000ba1dcf7,636c51db8e68f986cf4ab8c9,636d02a9b65f5d4cc148d072,,22395,"[""""tsg_comb/TestSeq001_4_GT_SG_000_B.mp4""""]",4,1
15,,,,,,,,,,,,video-button-response,5,144059,0.0-5.0,6016d442222eb48891237986,636c51db8e68f986cf4ab8c9,636d025ac60be5e8993b95f6,,71700,"[""""tsg_comb/TestSeq002_2_GD_v13_000_GT_A.mp4""""]",3,1
15,,,,,,,,,,,,html-button-response,1,24793,0.0-1.0,62e94c2fc95246b070e645cf,636c51db8e68f986cf4ab8c9,636d02c9e162209e439254db,"10/11/2022, 13:56:02","24351"",",,,1
15,,,,,,,,,,,,video-button-response,10,215354,0.0-10.0,60e89d7bb77ce411162d4b9d,636c51db8e68f986cf4ab8c9,636d0208f554429e6f30b905,,20733,"[""""tsg_comb/TestSeq005_2_GDDW_000_SG_000_A.mp4""""]",2,1
15,,,,,,,,,,,,video-button-response,4,53959,0.0-4.0,6148f390b233d5c1d397fd45,636c51db8e68f986cf4ab8c9,636d02ba85e871fe85073cd3,,21044,"[""""tsg_comb/TestSeq006_0_GD_v13_000_GT_B.mp4""""]",1,1
15,,,,,,,,,,,,video-button-response,11,241045,0.0-11.0,634da87b4998f19b0fc14703,636c51db8e68f986cf4ab8c9,636d01fca7aae7c41f256066,,22608,"[""""tsg_comb/TestSeq003_6_GT_SG_000_B.mp4""""]",3,1
16,1490,754,TRUE,edge-chromium,107.23.38,FALSE,Windows 10,TRUE,61.28.00,TRUE,TRUE,browser-check,0,1009,0.0-0.0,5d555d997c447d001df372b1,636c51db8e68f986cf4ab8c9,636d02f33da335cd8525609c,"10/11/2022, 13:56:16",,,,1
16,,,,,,,,,,,,video-button-response,5,75902,0.0-5.0,5f0adabb2e2b8a000ba1dcf7,636c51db8e68f986cf4ab8c9,636d02a9b65f5d4cc148d072,,22826,"[""""tsg_comb/TestSeq004_7_GDDW_000_SG_000_B.mp4""""]",3,1
16,,,,,,,,,,,,video-button-response,6,233283,0.0-6.0,5ba1a06b0686690001f514ae,636c51db8e68f986cf4ab8c9,636d01f95ac9d9c373872443,,27697,"[""""tsg_comb/TestSeq002_2_GDDW_000_GD_v13_000_A.mp4""""]",4,1
16,,,,,,,,,,,,video-button-response,11,236794,0.0-11.0,60e89d7bb77ce411162d4b9d,636c51db8e68f986cf4ab8c9,636d0208f554429e6f30b905,,21436,"[""""tsg_comb/TestSeq001_5_GDDW_000_GD_v13_000_A.mp4""""]",1,1
16,,,,,,,,,,,,video-button-response,6,170948,0.0-6.0,6016d442222eb48891237986,636c51db8e68f986cf4ab8c9,636d025ac60be5e8993b95f6,,26880,"[""""tsg_comb/TestSeq001_1_GDDW_000_GD_v13_000_A.mp4""""]",3,1
16,,,,,,,,,,,,video-button-response,5,74956,0.0-5.0,6148f390b233d5c1d397fd45,636c51db8e68f986cf4ab8c9,636d02ba85e871fe85073cd3,,20993,"[""""tsg_comb/TestSeq004_1_GD_v13_000_SG_000_B.mp4""""]",3,1
16,,,,,,,,,,,,html-button-response,1,18500,0.0-1.0,5d555d997c447d001df372b1,636c51db8e68f986cf4ab8c9,636d02f33da335cd8525609c,"10/11/2022, 13:56:34","17427"",",,,1
16,,,,,,,,,,,,video-button-response,12,264274,0.0-12.0,634da87b4998f19b0fc14703,636c51db8e68f986cf4ab8c9,636d01fca7aae7c41f256066,,23222,"[""""tsg_comb/TestSeq002_4_GDDW_000_SG_000_A.mp4""""]",2,1
16,,,,,,,,,,,,video-button-response,6,98908,0.0-6.0,5f0adabb2e2b8a000ba1dcf7,636c51db8e68f986cf4ab8c9,636d02a9b65f5d4cc148d072,,23001,"[""""tsg_comb/TestSeq002_6_GDDW_000_SG_000_A.mp4""""]",3,1
16,,,,,,,,,,,,html-button-response,2,76512,0.0-2.0,60fd02cf4e2e84d77af996bb,636c51db8e68f986cf4ab8c9,636d02c672e400bcc57c9ae3,"10/11/2022, 13:56:44",60848,<h2> Are you using headphones right now? </h2>,0,1
16,,,,,,,,,,,,video-button-response,12,257673,0.0-12.0,60e89d7bb77ce411162d4b9d,636c51db8e68f986cf4ab8c9,636d0208f554429e6f30b905,,20876,"[""""tsg_comb/TestSeq006_0_GDDW_000_SG_000_B.mp4""""]",2,1
16,,,,,,,,,,,,video-button-response,6,101240,0.0-6.0,6148f390b233d5c1d397fd45,636c51db8e68f986cf4ab8c9,636d02ba85e871fe85073cd3,,26279,"[""""tsg_comb/TestSeq001_6_GT_SG_000_B.mp4""""]",2,1
16,,,,,,,,,,,,video-button-response,7,270856,0.0-7.0,5ba1a06b0686690001f514ae,636c51db8e68f986cf4ab8c9,636d01f95ac9d9c373872443,,37561,"[""""tsg_comb/TestSeq005_4_GD_v13_000_GT_A.mp4""""]",4,1
16,,,,,,,,,,,,video-button-response,13,289729,0.0-13.0,634da87b4998f19b0fc14703,636c51db8e68f986cf4ab8c9,636d01fca7aae7c41f256066,,25448,"[""""tsg_comb/TestSeq003_2_GD_v13_000_GT_B.mp4""""]",2,1
16,,,,,,,,,,,,video-button-response,7,120532,0.0-7.0,5f0adabb2e2b8a000ba1dcf7,636c51db8e68f986cf4ab8c9,636d02a9b65f5d4cc148d072,,21621,"[""""tsg_comb/TestSeq005_0_GT_SG_000_A.mp4""""]",0,1
16,,,,,,,,,,,,html-button-response,2,51312,0.0-2.0,5d555d997c447d001df372b1,636c51db8e68f986cf4ab8c9,636d02f33da335cd8525609c,"10/11/2022, 13:57:07",32808,<h2> Are you using headphones right now? </h2>,0,1
16,,,,,,,,,,,,video-button-response,13,280257,0.0-13.0,60e89d7bb77ce411162d4b9d,636c51db8e68f986cf4ab8c9,636d0208f554429e6f30b905,,22580,"[""""tsg_comb/TestSeq003_0_GDDW_000_GT_B.mp4""""]",1,1
16,,,,,,,,,,,,video-button-response,7,122039,0.0-7.0,6148f390b233d5c1d397fd45,636c51db8e68f986cf4ab8c9,636d02ba85e871fe85073cd3,,20795,"[""""tsg_comb/TestSeq004_7_GDDW_000_GD_v13_000_B.mp4""""]",1,1
16,,,,,,,,,,,,video-button-response,3,109385,0.0-3.0,60fd02cf4e2e84d77af996bb,636c51db8e68f986cf4ab8c9,636d02c672e400bcc57c9ae3,,32863,"[""""tsg_comb/TestSeq002_1_GDDW_000_GD_v13_000_B.mp4""""]",1,1
16,,,,,,,,,,,,video-button-response,14,311717,0.0-14.0,634da87b4998f19b0fc14703,636c51db8e68f986cf4ab8c9,636d01fca7aae7c41f256066,,21982,"[""""tsg_comb/TestSeq003_4_GDDW_000_GT_B.mp4""""]",0,1
16,,,,,,,,,,,,video-button-response,8,295775,0.0-8.0,5ba1a06b0686690001f514ae,636c51db8e68f986cf4ab8c9,636d01f95ac9d9c373872443,,24905,"[""""tsg_comb/TestSeq001_5_GDDW_000_GD_v13_000_A.mp4""""]",4,1
16,,,,,,,,,,,,video-button-response,8,142894,0.0-8.0,5f0adabb2e2b8a000ba1dcf7,636c51db8e68f986cf4ab8c9,636d02a9b65f5d4cc148d072,,22358,"[""""tsg_comb/TestSeq002_0_GD_v13_000_SG_000_A.mp4""""]",2,1
16,,,,,,,,,,,,video-button-response,3,73521,0.0-3.0,5d555d997c447d001df372b1,636c51db8e68f986cf4ab8c9,636d02f33da335cd8525609c,,22205,"[""""tsg_comb/TestSeq005_3_GD_v13_000_GT_B.mp4""""]",3,1
16,,,,,,,,,,,,video-button-response,14,301609,0.0-14.0,60e89d7bb77ce411162d4b9d,636c51db8e68f986cf4ab8c9,636d0208f554429e6f30b905,,21349,"[""""tsg_comb/TestSeq004_4_GDDW_000_GT_A.mp4""""]",4,1
16,,,,,,,,,,,,video-button-response,7,238087,0.0-7.0,6016d442222eb48891237986,636c51db8e68f986cf4ab8c9,636d025ac60be5e8993b95f6,,67130,"[""""tsg_comb/TestSeq003_0_GD_v13_000_SG_000_B.mp4""""]",3,1
16,,,,,,,,,,,,video-button-response,8,143841,0.0-8.0,6148f390b233d5c1d397fd45,636c51db8e68f986cf4ab8c9,636d02ba85e871fe85073cd3,,21797,"[""""tsg_comb/TestSeq005_1_GD_v13_000_SG_000_B.mp4""""]",4,1
16,,,,,,,,,,,,video-button-response,4,131251,0.0-4.0,60fd02cf4e2e84d77af996bb,636c51db8e68f986cf4ab8c9,636d02c672e400bcc57c9ae3,,21856,"[""""tsg_comb/TestSeq005_0_GDDW_000_GD_v13_000_A.mp4""""]",4,1
16,,,,,,,,,,,,video-button-response,15,334046,0.0-15.0,634da87b4998f19b0fc14703,636c51db8e68f986cf4ab8c9,636d01fca7aae7c41f256066,,22323,"[""""tsg_comb/TestSeq005_4_GDDW_000_SG_000_A.mp4""""]",3,1
16,,,,,,,,,,,,video-button-response,9,318569,0.0-9.0,5ba1a06b0686690001f514ae,636c51db8e68f986cf4ab8c9,636d01f95ac9d9c373872443,,22781,"[""""tsg_comb/TestSeq006_0_GDDW_000_SG_000_B.mp4""""]",2,1
16,,,,,,,,,,,,video-button-response,9,166573,0.0-9.0,5f0adabb2e2b8a000ba1dcf7,636c51db8e68f986cf4ab8c9,636d02a9b65f5d4cc148d072,,23675,"[""""tsg_comb/TestSeq005_4_GDDW_000_GD_v13_000_A.mp4""""]",3,1
16,,,,,,,,,,,,video-button-response,4,95598,0.0-4.0,5d555d997c447d001df372b1,636c51db8e68f986cf4ab8c9,636d02f33da335cd8525609c,,22073,"[""""tsg_comb/TestSeq002_2_GD_v13_000_GT_A.mp4""""]",3,1
16,,,,,,,,,,,,video-button-response,15,322906,0.0-15.0,60e89d7bb77ce411162d4b9d,636c51db8e68f986cf4ab8c9,636d0208f554429e6f30b905,,21292,"[""""tsg_comb/TestSeq003_5_GD_v13_000_SG_000_A.mp4""""]",1,1
16,,,,,,,,,,,,video-button-response,9,165355,0.0-9.0,6148f390b233d5c1d397fd45,636c51db8e68f986cf4ab8c9,636d02ba85e871fe85073cd3,,21510,"[""""tsg_comb/TestSeq003_3_GT_SG_000_A.mp4""""]",0,1
16,,,,,,,,,,,,video-button-response,8,262999,0.0-8.0,6016d442222eb48891237986,636c51db8e68f986cf4ab8c9,636d025ac60be5e8993b95f6,,24903,"[""""tsg_comb/TestSeq003_2_GDDW_000_GT_B.mp4""""]",0,1
16,,,,,,,,,,,,video-button-response,10,341987,0.0-10.0,5ba1a06b0686690001f514ae,636c51db8e68f986cf4ab8c9,636d01f95ac9d9c373872443,,23405,"[""""tsg_comb/TestSeq001_1_GDDW_000_SG_000_A.mp4""""]",2,1
16,,,,,,,,,,,,video-button-response,5,160718,0.0-5.0,60fd02cf4e2e84d77af996bb,636c51db8e68f986cf4ab8c9,636d02c672e400bcc57c9ae3,,29459,"[""""tsg_comb/TestSeq004_6_GDDW_000_SG_000_A.mp4""""]",4,1
16,,,,,,,,,,,,video-button-response,16,361494,0.0-16.0,634da87b4998f19b0fc14703,636c51db8e68f986cf4ab8c9,636d01fca7aae7c41f256066,,27442,"[""""tsg_comb/TestSeq001_6_GT_SG_000_B.mp4""""]",2,1
16,,,,,,,,,,,,video-button-response,10,191003,0.0-10.0,5f0adabb2e2b8a000ba1dcf7,636c51db8e68f986cf4ab8c9,636d02a9b65f5d4cc148d072,,24421,"[""""tsg_comb/TestSeq002_3_GT_SG_000_B.mp4""""]",2,1
16,,,,,,,,,,,,video-button-response,16,344066,0.0-16.0,60e89d7bb77ce411162d4b9d,636c51db8e68f986cf4ab8c9,636d0208f554429e6f30b905,,21157,"[""""tsg_comb/TestSeq003_2_GD_v13_000_GT_B.mp4""""]",1,1
16,,,,,,,,,,,,video-button-response,5,117689,0.0-5.0,5d555d997c447d001df372b1,636c51db8e68f986cf4ab8c9,636d02f33da335cd8525609c,,22091,"[""""tsg_comb/TestSeq005_0_GT_SG_000_A.mp4""""]",0,1
16,,,,,,,,,,,,video-button-response,10,186422,0.0-10.0,6148f390b233d5c1d397fd45,636c51db8e68f986cf4ab8c9,636d02ba85e871fe85073cd3,,21062,"[""""tsg_comb/TestSeq004_5_GD_v13_000_SG_000_B.mp4""""]",1,1
16,,,,,,,,,,,,video-button-response,6,182649,0.0-6.0,60fd02cf4e2e84d77af996bb,636c51db8e68f986cf4ab8c9,636d02c672e400bcc57c9ae3,,21926,"[""""tsg_comb/TestSeq005_4_GDDW_000_GD_v13_000_A.mp4""""]",1,1
16,,,,,,,,,,,,video-button-response,17,364954,0.0-17.0,60e89d7bb77ce411162d4b9d,636c51db8e68f986cf4ab8c9,636d0208f554429e6f30b905,,20882,"[""""tsg_comb/TestSeq002_0_GD_v13_000_SG_000_A.mp4""""]",1,1
16,,,,,,,,,,,,video-button-response,17,384724,0.0-17.0,634da87b4998f19b0fc14703,636c51db8e68f986cf4ab8c9,636d01fca7aae7c41f256066,,23225,"[""""tsg_comb/TestSeq002_5_GDDW_000_GD_v13_000_B.mp4""""]",1,1
16,,,,,,,,,,,,video-button-response,6,139646,0.0-6.0,5d555d997c447d001df372b1,636c51db8e68f986cf4ab8c9,636d02f33da335cd8525609c,,21953,"[""""tsg_comb/TestSeq003_5_GT_SG_000_A.mp4""""]",4,1
16,,,,,,,,,,,,video-button-response,11,213614,0.0-11.0,5f0adabb2e2b8a000ba1dcf7,636c51db8e68f986cf4ab8c9,636d02a9b65f5d4cc148d072,,22609,"[""""tsg_comb/TestSeq004_2_GDDW_000_GD_v13_000_A.mp4""""]",3,1
16,,,,,,,,,,,,video-button-response,11,372179,0.0-11.0,5ba1a06b0686690001f514ae,636c51db8e68f986cf4ab8c9,636d01f95ac9d9c373872443,,30181,"[""""tsg_comb/TestSeq003_1_GD_v13_000_GT_A.mp4""""]",2,1
16,,,,,,,,,,,,video-button-response,11,207506,0.0-11.0,6148f390b233d5c1d397fd45,636c51db8e68f986cf4ab8c9,636d02ba85e871fe85073cd3,,21078,"[""""tsg_comb/TestSeq003_2_GDDW_000_GT_B.mp4""""]",0,1
16,,,,,,,,,,,,video-button-response,7,204453,0.0-7.0,60fd02cf4e2e84d77af996bb,636c51db8e68f986cf4ab8c9,636d02c672e400bcc57c9ae3,,21799,"[""""tsg_comb/TestSeq004_5_GD_v13_000_SG_000_B.mp4""""]",3,1
16,,,,,,,,,,,,video-button-response,18,386315,0.0-18.0,60e89d7bb77ce411162d4b9d,636c51db8e68f986cf4ab8c9,636d0208f554429e6f30b905,,21357,"[""""tsg_comb/TestSeq002_3_GT_SG_000_B.mp4""""]",4,1
16,,,,,,,,,,,,video-button-response,7,160652,0.0-7.0,5d555d997c447d001df372b1,636c51db8e68f986cf4ab8c9,636d02f33da335cd8525609c,,21002,"[""""tsg_comb/TestSeq002_1_GDDW_000_GD_v13_000_B.mp4""""]",0,1
16,,,,,,,,,,,,video-button-response,18,409539,0.0-18.0,634da87b4998f19b0fc14703,636c51db8e68f986cf4ab8c9,636d01fca7aae7c41f256066,,24810,"[""""tsg_comb/TestSeq006_0_GDDW_000_GT_B.mp4""""]",0,1
16,,,,,,,,,,,,video-button-response,12,236140,0.0-12.0,5f0adabb2e2b8a000ba1dcf7,636c51db8e68f986cf4ab8c9,636d02a9b65f5d4cc148d072,,22519,"[""""tsg_comb/TestSeq002_4_GD_v13_000_GT_A.mp4""""]",2,1
16,,,,,,,,,,,,video-button-response,12,396100,0.0-12.0,5ba1a06b0686690001f514ae,636c51db8e68f986cf4ab8c9,636d01f95ac9d9c373872443,,23909,"[""""tsg_comb/TestSeq001_0_GDDW_000_SG_000_B.mp4""""]",0,1
16,,,,,,,,,,,,video-button-response,12,228972,0.0-12.0,6148f390b233d5c1d397fd45,636c51db8e68f986cf4ab8c9,636d02ba85e871fe85073cd3,,21461,"[""""tsg_comb/TestSeq002_1_GDDW_000_SG_000_B.mp4""""]",0,1
16,,,,,,,,,,,,video-button-response,8,225644,0.0-8.0,60fd02cf4e2e84d77af996bb,636c51db8e68f986cf4ab8c9,636d02c672e400bcc57c9ae3,,21183,"[""""tsg_comb/TestSeq004_1_GDDW_000_GT_B.mp4""""]",0,1
16,,,,,,,,,,,,video-button-response,8,182328,0.0-8.0,5d555d997c447d001df372b1,636c51db8e68f986cf4ab8c9,636d02f33da335cd8525609c,,21675,"[""""tsg_comb/TestSeq004_5_GDDW_000_GD_v13_000_B.mp4""""]",2,1
16,,,,,,,,,,,,video-button-response,19,432433,0.0-19.0,634da87b4998f19b0fc14703,636c51db8e68f986cf4ab8c9,636d01fca7aae7c41f256066,,22887,"[""""tsg_comb/TestSeq001_3_GDDW_000_GT_A.mp4""""]",4,1
16,,,,,,,,,,,,video-button-response,13,250786,0.0-13.0,6148f390b233d5c1d397fd45,636c51db8e68f986cf4ab8c9,636d02ba85e871fe85073cd3,,21810,"[""""tsg_comb/TestSeq004_4_GDDW_000_GT_A.mp4""""]",0,1
16,,,,,,,,,,,,video-button-response,13,425569,0.0-13.0,5ba1a06b0686690001f514ae,636c51db8e68f986cf4ab8c9,636d01f95ac9d9c373872443,,29458,"[""""tsg_comb/TestSeq005_0_GDDW_000_GT_A.mp4""""]",2,1
16,,,,,,,,,,,,video-button-response,19,422986,0.0-19.0,60e89d7bb77ce411162d4b9d,636c51db8e68f986cf4ab8c9,636d0208f554429e6f30b905,,36668,"[""""tsg_comb/TestSeq004_0_GT_SG_000_A.mp4""""]",0,1
16,,,,,,,,,,,,video-button-response,9,247309,0.0-9.0,60fd02cf4e2e84d77af996bb,636c51db8e68f986cf4ab8c9,636d02c672e400bcc57c9ae3,,21656,"[""""tsg_comb/TestSeq001_0_GDDW_000_GT_B.mp4""""]",0,1
16,,,,,,,,,,,,video-button-response,13,274749,0.0-13.0,5f0adabb2e2b8a000ba1dcf7,636c51db8e68f986cf4ab8c9,636d02a9b65f5d4cc148d072,,38604,"[""""tsg_comb/TestSeq003_4_GDDW_000_GT_B.mp4""""]",1,1
16,,,,,,,,,,,,video-button-response,9,203533,0.0-9.0,5d555d997c447d001df372b1,636c51db8e68f986cf4ab8c9,636d02f33da335cd8525609c,,21202,"[""""tsg_comb/TestSeq004_2_GDDW_000_SG_000_A.mp4""""]",4,1
16,,,,,,,,,,,,video-button-response,14,267738,0.0-14.0,6148f390b233d5c1d397fd45,636c51db8e68f986cf4ab8c9,636d02ba85e871fe85073cd3,,16949,"[""""tsg_comb/TestSeq003_6_GDDW_000_GD_v13_000_B.mp4""""]",0,1
16,,,,,,,,,,,,video-button-response,20,454099,0.0-20.0,634da87b4998f19b0fc14703,636c51db8e68f986cf4ab8c9,636d01fca7aae7c41f256066,,21660,"[""""tsg_comb/TestSeq002_2_GDDW_000_SG_000_A.mp4""""]",3,1
16,,,,,,,,,,,,video-button-response,9,373392,0.0-9.0,6016d442222eb48891237986,636c51db8e68f986cf4ab8c9,636d025ac60be5e8993b95f6,,110383,"[""""tsg_comb/TestSeq001_0_GDDW_000_SG_000_B.mp4""""]",2,1
16,,,,,,,,,,,,video-button-response,20,443675,0.0-20.0,60e89d7bb77ce411162d4b9d,636c51db8e68f986cf4ab8c9,636d0208f554429e6f30b905,,20685,"[""""tsg_comb/TestSeq001_3_GD_v13_000_SG_000_A.mp4""""]",2,1
16,,,,,,,,,,,,video-button-response,14,449868,0.0-14.0,5ba1a06b0686690001f514ae,636c51db8e68f986cf4ab8c9,636d01f95ac9d9c373872443,,24284,"[""""tsg_comb/TestSeq001_3_GT_SG_000_A.mp4""""]",1,1
16,,,,,,,,,,,,video-button-response,10,268146,0.0-10.0,60fd02cf4e2e84d77af996bb,636c51db8e68f986cf4ab8c9,636d02c672e400bcc57c9ae3,,20828,"[""""tsg_comb/TestSeq001_1_GDDW_000_GT_A.mp4""""]",4,1
16,,,,,,,,,,,,video-button-response,10,225151,0.0-10.0,5d555d997c447d001df372b1,636c51db8e68f986cf4ab8c9,636d02f33da335cd8525609c,,21615,"[""""tsg_comb/TestSeq003_1_GDDW_000_GD_v13_000_A.mp4""""]",4,1
16,,,,,,,,,,,,video-button-response,14,297047,0.0-14.0,5f0adabb2e2b8a000ba1dcf7,636c51db8e68f986cf4ab8c9,636d02a9b65f5d4cc148d072,,22294,"[""""tsg_comb/TestSeq003_3_GDDW_000_SG_000_A.mp4""""]",3,1
16,,,,,,,,,,,,video-button-response,21,477954,0.0-21.0,634da87b4998f19b0fc14703,636c51db8e68f986cf4ab8c9,636d01fca7aae7c41f256066,,23847,"[""""tsg_comb/TestSeq002_1_GD_v13_000_SG_000_B.mp4""""]",2,1
16,,,,,,,,,,,,video-button-response,10,395367,0.0-10.0,6016d442222eb48891237986,636c51db8e68f986cf4ab8c9,636d025ac60be5e8993b95f6,,21968,"[""""tsg_comb/TestSeq004_2_GD_v13_000_GT_A.mp4""""]",3,1
16,,,,,,,,,,,,video-button-response,15,298107,0.0-15.0,6148f390b233d5c1d397fd45,636c51db8e68f986cf4ab8c9,636d02ba85e871fe85073cd3,,30364,"[""""tsg_comb/TestSeq002_3_GD_v13_000_GT_B.mp4""""]",1,1
16,,,,,,,,,,,,video-button-response,21,464890,0.0-21.0,60e89d7bb77ce411162d4b9d,636c51db8e68f986cf4ab8c9,636d0208f554429e6f30b905,,21212,"[""""tsg_comb/TestSeq002_2_GD_v13_000_GT_A.mp4""""]",4,1
16,,,,,,,,,,,,video-button-response,15,472279,0.0-15.0,5ba1a06b0686690001f514ae,636c51db8e68f986cf4ab8c9,636d01f95ac9d9c373872443,,22396,"[""""tsg_comb/TestSeq005_2_GT_SG_000_A.mp4""""]",0,1
16,,,,,,,,,,,,video-button-response,11,246409,0.0-11.0,5d555d997c447d001df372b1,636c51db8e68f986cf4ab8c9,636d02f33da335cd8525609c,,21256,"[""""tsg_comb/TestSeq002_0_GDDW_000_SG_000_A.mp4""""]",4,1
16,,,,,,,,,,,,video-button-response,15,318903,0.0-15.0,5f0adabb2e2b8a000ba1dcf7,636c51db8e68f986cf4ab8c9,636d02a9b65f5d4cc148d072,,21851,"[""""tsg_comb/TestSeq004_0_GDDW_000_GT_A.mp4""""]",4,1
16,,,,,,,,,,,,video-button-response,22,500086,0.0-22.0,634da87b4998f19b0fc14703,636c51db8e68f986cf4ab8c9,636d01fca7aae7c41f256066,,22126,"[""""tsg_comb/TestSeq004_5_GDDW_000_GT_B.mp4""""]",0,1
16,,,,,,,,,,,,video-button-response,11,416953,0.0-11.0,6016d442222eb48891237986,636c51db8e68f986cf4ab8c9,636d025ac60be5e8993b95f6,,21581,"[""""tsg_comb/TestSeq005_2_GT_SG_000_A.mp4""""]",1,1
16,,,,,,,,,,,,video-button-response,11,304003,0.0-11.0,60fd02cf4e2e84d77af996bb,636c51db8e68f986cf4ab8c9,636d02c672e400bcc57c9ae3,,35847,"[""""tsg_comb/TestSeq001_6_GDDW_000_SG_000_B.mp4""""]",1,1
16,,,,,,,,,,,,video-button-response,16,320039,0.0-16.0,6148f390b233d5c1d397fd45,636c51db8e68f986cf4ab8c9,636d02ba85e871fe85073cd3,,21927,"[""""tsg_comb/TestSeq001_2_GT_SG_000_B.mp4""""]",4,1
16,,,,,,,,,,,,video-button-response,22,486203,0.0-22.0,60e89d7bb77ce411162d4b9d,636c51db8e68f986cf4ab8c9,636d0208f554429e6f30b905,,21308,"[""""tsg_comb/TestSeq001_4_GD_v13_000_GT_B.mp4""""]",0,1
16,,,,,,,,,,,,video-button-response,12,268232,0.0-12.0,5d555d997c447d001df372b1,636c51db8e68f986cf4ab8c9,636d02f33da335cd8525609c,,21819,"[""""tsg_comb/TestSeq005_4_GDDW_000_GT_A.mp4""""]",4,1
16,,,,,,,,,,,,video-button-response,16,341760,0.0-16.0,5f0adabb2e2b8a000ba1dcf7,636c51db8e68f986cf4ab8c9,636d02a9b65f5d4cc148d072,,22851,"[""""tsg_comb/TestSeq004_6_GT_SG_000_A.mp4""""]",0,1
16,,,,,,,,,,,,video-button-response,23,521067,0.0-23.0,634da87b4998f19b0fc14703,636c51db8e68f986cf4ab8c9,636d01fca7aae7c41f256066,,20975,"[""""tsg_comb/TestSeq006_1_GD_v13_000_GT_A.mp4""""]",4,1
16,,,,,,,,,,,,video-button-response,12,325456,0.0-12.0,60fd02cf4e2e84d77af996bb,636c51db8e68f986cf4ab8c9,636d02c672e400bcc57c9ae3,,21449,"[""""tsg_comb/TestSeq005_2_GDDW_000_SG_000_A.mp4""""]",1,1
16,,,,,,,,,,,,video-button-response,12,437989,0.0-12.0,6016d442222eb48891237986,636c51db8e68f986cf4ab8c9,636d025ac60be5e8993b95f6,,21028,"[""""tsg_comb/TestSeq002_1_GDDW_000_GD_v13_000_B.mp4""""]",0,1
16,,,,,,,,,,,,video-button-response,17,341355,0.0-17.0,6148f390b233d5c1d397fd45,636c51db8e68f986cf4ab8c9,636d02ba85e871fe85073cd3,,21311,"[""""tsg_comb/TestSeq001_0_GDDW_000_GD_v13_000_B.mp4""""]",1,1
16,,,,,,,,,,,,video-button-response,23,507514,0.0-23.0,60e89d7bb77ce411162d4b9d,636c51db8e68f986cf4ab8c9,636d0208f554429e6f30b905,,21308,"[""""tsg_comb/TestSeq002_5_GD_v13_000_GT_B.mp4""""]",0,1
16,,,,,,,,,,,,video-button-response,17,359649,0.0-17.0,5f0adabb2e2b8a000ba1dcf7,636c51db8e68f986cf4ab8c9,636d02a9b65f5d4cc148d072,,17884,"[""""tsg_comb/TestSeq003_6_GDDW_000_GD_v13_000_B.mp4""""]",1,1
16,,,,,,,,,,,,video-button-response,13,288960,0.0-13.0,5d555d997c447d001df372b1,636c51db8e68f986cf4ab8c9,636d02f33da335cd8525609c,,20724,"[""""tsg_comb/TestSeq004_0_GDDW_000_GT_A.mp4""""]",4,1
16,,,,,,,,,,,,video-button-response,16,524054,0.0-16.0,5ba1a06b0686690001f514ae,636c51db8e68f986cf4ab8c9,636d01f95ac9d9c373872443,,51764,"[""""tsg_comb/TestSeq004_4_GDDW_000_SG_000_A.mp4""""]",2,1
16,,,,,,,,,,,,video-button-response,24,543326,0.0-24.0,634da87b4998f19b0fc14703,636c51db8e68f986cf4ab8c9,636d01fca7aae7c41f256066,,22252,"[""""tsg_comb/TestSeq002_6_GDDW_000_GD_v13_000_A.mp4""""]",4,1
16,,,,,,,,,,,,video-button-response,13,459444,0.0-13.0,6016d442222eb48891237986,636c51db8e68f986cf4ab8c9,636d025ac60be5e8993b95f6,,21448,"[""""tsg_comb/TestSeq003_1_GT_SG_000_A.mp4""""]",1,1
16,,,,,,,,,,,,video-button-response,13,347099,0.0-13.0,60fd02cf4e2e84d77af996bb,636c51db8e68f986cf4ab8c9,636d02c672e400bcc57c9ae3,,21638,"[""""tsg_comb/TestSeq004_2_GDDW_000_GT_A.mp4""""]",3,1
16,,,,,,,,,,,,video-button-response,24,529002,0.0-24.0,60e89d7bb77ce411162d4b9d,636c51db8e68f986cf4ab8c9,636d0208f554429e6f30b905,,21484,"[""""tsg_comb/TestSeq005_4_GDDW_000_SG_000_A.mp4""""]",3,1
16,,,,,,,,,,,,video-button-response,18,362607,0.0-18.0,6148f390b233d5c1d397fd45,636c51db8e68f986cf4ab8c9,636d02ba85e871fe85073cd3,,21246,"[""""tsg_comb/TestSeq004_3_GD_v13_000_SG_000_B.mp4""""]",3,1
16,,,,,,,,,,,,video-button-response,14,310575,0.0-14.0,5d555d997c447d001df372b1,636c51db8e68f986cf4ab8c9,636d02f33da335cd8525609c,,21611,"[""""tsg_comb/TestSeq003_0_GDDW_000_SG_000_B.mp4""""]",2,1
16,,,,,,,,,,,,video-button-response,18,385876,0.0-18.0,5f0adabb2e2b8a000ba1dcf7,636c51db8e68f986cf4ab8c9,636d02a9b65f5d4cc148d072,,26223,"[""""tsg_comb/TestSeq004_4_GT_SG_000_A.mp4""""]",2,1
16,,,,,,,,,,,,video-button-response,17,546568,0.0-17.0,5ba1a06b0686690001f514ae,636c51db8e68f986cf4ab8c9,636d01f95ac9d9c373872443,,22500,"[""""tsg_comb/TestSeq003_2_GDDW_000_GT_B.mp4""""]",0,1
16,,,,,,,,,,,,video-button-response,14,481464,0.0-14.0,6016d442222eb48891237986,636c51db8e68f986cf4ab8c9,636d025ac60be5e8993b95f6,,22013,"[""""tsg_comb/TestSeq004_3_GD_v13_000_GT_B.mp4""""]",3,1
16,,,,,,,,,,,,video-button-response,25,567084,0.0-25.0,634da87b4998f19b0fc14703,636c51db8e68f986cf4ab8c9,636d01fca7aae7c41f256066,,23750,"[""""tsg_comb/TestSeq004_2_GT_SG_000_A.mp4""""]",3,1
16,,,,,,,,,,,,video-button-response,25,550090,0.0-25.0,60e89d7bb77ce411162d4b9d,636c51db8e68f986cf4ab8c9,636d0208f554429e6f30b905,,21084,"[""""tsg_comb/TestSeq004_2_GD_v13_000_GT_A.mp4""""]",3,1
16,,,,,,,,,,,,video-button-response,19,383553,0.0-19.0,6148f390b233d5c1d397fd45,636c51db8e68f986cf4ab8c9,636d02ba85e871fe85073cd3,,20942,"[""""tsg_comb/TestSeq005_4_GD_v13_000_GT_A.mp4""""]",4,1
16,,,,,,,,,,,,video-button-response,14,374277,0.0-14.0,60fd02cf4e2e84d77af996bb,636c51db8e68f986cf4ab8c9,636d02c672e400bcc57c9ae3,,27173,"[""""tsg_comb/TestSeq003_2_GD_v13_000_GT_B.mp4""""]",1,1
16,,,,,,,,,,,,video-button-response,15,333457,0.0-15.0,5d555d997c447d001df372b1,636c51db8e68f986cf4ab8c9,636d02f33da335cd8525609c,,22877,"[""""tsg_comb/TestSeq003_4_GD_v13_000_GT_B.mp4""""]",2,1
16,,,,,,,,,,,,video-button-response,19,407884,0.0-19.0,5f0adabb2e2b8a000ba1dcf7,636c51db8e68f986cf4ab8c9,636d02a9b65f5d4cc148d072,,22005,"[""""tsg_comb/TestSeq001_1_GD_v13_000_GT_A.mp4""""]",4,1
16,,,,,,,,,,,,video-button-response,18,569568,0.0-18.0,5ba1a06b0686690001f514ae,636c51db8e68f986cf4ab8c9,636d01f95ac9d9c373872443,,22989,"[""""tsg_comb/TestSeq002_5_GDDW_000_SG_000_B.mp4""""]",0,1
16,,,,,,,,,,,,video-button-response,26,588793,0.0-26.0,634da87b4998f19b0fc14703,636c51db8e68f986cf4ab8c9,636d01fca7aae7c41f256066,,21703,"[""""tsg_comb/TestSeq005_1_GDDW_000_GD_v13_000_B.mp4""""]",1,1
16,,,,,,,,,,,,video-button-response,15,503751,0.0-15.0,6016d442222eb48891237986,636c51db8e68f986cf4ab8c9,636d025ac60be5e8993b95f6,,22279,"[""""tsg_comb/TestSeq001_3_GDDW_000_GT_A.mp4""""]",3,1
16,,,,,,,,,,,,video-button-response,20,404787,0.0-20.0,6148f390b233d5c1d397fd45,636c51db8e68f986cf4ab8c9,636d02ba85e871fe85073cd3,,21230,"[""""tsg_comb/TestSeq004_6_GT_SG_000_A.mp4""""]",1,1
16,,,,,,,,,,,,video-button-response,26,571426,0.0-26.0,60e89d7bb77ce411162d4b9d,636c51db8e68f986cf4ab8c9,636d0208f554429e6f30b905,,21332,"[""""tsg_comb/TestSeq005_1_GDDW_000_GD_v13_000_B.mp4""""]",1,1
16,,,,,,,,,,,,video-button-response,15,396820,0.0-15.0,60fd02cf4e2e84d77af996bb,636c51db8e68f986cf4ab8c9,636d02c672e400bcc57c9ae3,,22538,"[""""tsg_comb/TestSeq001_4_GD_v13_000_GT_B.mp4""""]",0,1
16,,,,,,,,,,,,video-button-response,16,355113,0.0-16.0,5d555d997c447d001df372b1,636c51db8e68f986cf4ab8c9,636d02f33da335cd8525609c,,21652,"[""""tsg_comb/TestSeq004_3_GD_v13_000_SG_000_B.mp4""""]",2,1
16,,,,,,,,,,,,video-button-response,20,429915,0.0-20.0,5f0adabb2e2b8a000ba1dcf7,636c51db8e68f986cf4ab8c9,636d02a9b65f5d4cc148d072,,22026,"[""""tsg_comb/TestSeq005_3_GT_SG_000_B.mp4""""]",3,1
16,,,,,,,,,,,,video-button-response,19,592199,0.0-19.0,5ba1a06b0686690001f514ae,636c51db8e68f986cf4ab8c9,636d01f95ac9d9c373872443,,22617,"[""""tsg_comb/TestSeq004_3_GD_v13_000_GT_B.mp4""""]",2,1
16,,,,,,,,,,,,video-button-response,27,611304,0.0-27.0,634da87b4998f19b0fc14703,636c51db8e68f986cf4ab8c9,636d01fca7aae7c41f256066,,22504,"[""""tsg_comb/TestSeq002_0_GD_v13_000_SG_000_A.mp4""""]",1,1
16,,,,,,,,,,,,video-button-response,16,526230,0.0-16.0,6016d442222eb48891237986,636c51db8e68f986cf4ab8c9,636d025ac60be5e8993b95f6,,22466,"[""""tsg_comb/TestSeq002_4_GDDW_000_GT_A.mp4""""]",1,1
16,,,,,,,,,,,,video-button-response,21,426203,0.0-21.0,6148f390b233d5c1d397fd45,636c51db8e68f986cf4ab8c9,636d02ba85e871fe85073cd3,,21409,"[""""tsg_comb/TestSeq002_0_GT_SG_000_A.mp4""""]",0,1
16,,,,,,,,,,,,video-button-response,27,593162,0.0-27.0,60e89d7bb77ce411162d4b9d,636c51db8e68f986cf4ab8c9,636d0208f554429e6f30b905,,21733,"[""""tsg_comb/TestSeq004_6_GT_SG_000_A.mp4""""]",2,1
16,,,,,,,,,,,,video-button-response,16,418459,0.0-16.0,60fd02cf4e2e84d77af996bb,636c51db8e68f986cf4ab8c9,636d02c672e400bcc57c9ae3,,21635,"[""""tsg_comb/TestSeq005_1_GDDW_000_GD_v13_000_B.mp4""""]",1,1
16,,,,,,,,,,,,video-button-response,17,376605,0.0-17.0,5d555d997c447d001df372b1,636c51db8e68f986cf4ab8c9,636d02f33da335cd8525609c,,21488,"[""""tsg_comb/TestSeq002_5_GDDW_000_GT_B.mp4""""]",0,1
16,,,,,,,,,,,,video-button-response,21,451574,0.0-21.0,5f0adabb2e2b8a000ba1dcf7,636c51db8e68f986cf4ab8c9,636d02a9b65f5d4cc148d072,,21655,"[""""tsg_comb/TestSeq003_2_GD_v13_000_SG_000_B.mp4""""]",4,1
16,,,,,,,,,,,,html-button-response,1,593572,0.0-1.0,5c732f631388ff0001100e6d,636c51db8e68f986cf4ab8c9,636d021e64b7ecce95355db3,"11/10/2022, 9:04:23 AM","592558"",",,,1
16,,,,,,,,,,,,video-button-response,17,547981,0.0-17.0,6016d442222eb48891237986,636c51db8e68f986cf4ab8c9,636d025ac60be5e8993b95f6,,21743,"[""""tsg_comb/TestSeq005_4_GDDW_000_SG_000_A.mp4""""]",3,1
16,,,,,,,,,,,,video-button-response,22,447485,0.0-22.0,6148f390b233d5c1d397fd45,636c51db8e68f986cf4ab8c9,636d02ba85e871fe85073cd3,,21276,"[""""tsg_comb/TestSeq004_2_GDDW_000_GD_v13_000_A.mp4""""]",1,1
16,,,,,,,,,,,,video-button-response,20,617219,0.0-20.0,5ba1a06b0686690001f514ae,636c51db8e68f986cf4ab8c9,636d01f95ac9d9c373872443,,25004,"[""""tsg_comb/TestSeq002_6_GDDW_000_SG_000_A.mp4""""]",2,1
16,,,,,,,,,,,,video-button-response,28,635037,0.0-28.0,634da87b4998f19b0fc14703,636c51db8e68f986cf4ab8c9,636d01fca7aae7c41f256066,,23727,"[""""tsg_comb/TestSeq002_3_GDDW_000_GT_B.mp4""""]",2,1
16,,,,,,,,,,,,video-button-response,28,616642,0.0-28.0,60e89d7bb77ce411162d4b9d,636c51db8e68f986cf4ab8c9,636d0208f554429e6f30b905,,23476,"[""""tsg_comb/TestSeq005_0_GD_v13_000_SG_000_A.mp4""""]",1,1
16,,,,,,,,,,,,html-button-response,2,602551,0.0-2.0,5c732f631388ff0001100e6d,636c51db8e68f986cf4ab8c9,636d021e64b7ecce95355db3,"11/10/2022, 9:04:32 AM",8977,<h2> Are you using headphones right now? </h2>,0,1
16,,,,,,,,,,,,video-button-response,17,441619,0.0-17.0,60fd02cf4e2e84d77af996bb,636c51db8e68f986cf4ab8c9,636d02c672e400bcc57c9ae3,,23155,"[""""tsg_comb/TestSeq004_0_GD_v13_000_SG_000_A.mp4""""]",2,1
16,,,,,,,,,,,,video-button-response,18,398139,0.0-18.0,5d555d997c447d001df372b1,636c51db8e68f986cf4ab8c9,636d02f33da335cd8525609c,,21530,"[""""tsg_comb/TestSeq001_0_GD_v13_000_GT_B.mp4""""]",0,1
16,,,,,,,,,,,,video-button-response,22,473853,0.0-22.0,5f0adabb2e2b8a000ba1dcf7,636c51db8e68f986cf4ab8c9,636d02a9b65f5d4cc148d072,,22269,"[""""tsg_comb/TestSeq001_5_GDDW_000_GT_A.mp4""""]",4,1
16,,,,,,,,,,,,video-button-response,21,635735,0.0-21.0,5ba1a06b0686690001f514ae,636c51db8e68f986cf4ab8c9,636d01f95ac9d9c373872443,,18500,"[""""tsg_comb/TestSeq003_6_GD_v13_000_SG_000_B.mp4""""]",3,1
16,,,,,,,,,,,,video-button-response,23,469370,0.0-23.0,6148f390b233d5c1d397fd45,636c51db8e68f986cf4ab8c9,636d02ba85e871fe85073cd3,,21879,"[""""tsg_comb/TestSeq006_1_GT_SG_000_A.mp4""""]",0,1
16,,,,,,,,,,,,video-button-response,29,637811,0.0-29.0,60e89d7bb77ce411162d4b9d,636c51db8e68f986cf4ab8c9,636d0208f554429e6f30b905,,21165,"[""""tsg_comb/TestSeq003_3_GDDW_000_GD_v13_000_A.mp4""""]",3,1
16,,,,,,,,,,,,video-button-response,29,657741,0.0-29.0,634da87b4998f19b0fc14703,636c51db8e68f986cf4ab8c9,636d01fca7aae7c41f256066,,22697,"[""""tsg_comb/TestSeq001_5_GD_v13_000_GT_A.mp4""""]",4,1
16,,,,,,,,,,,,video-button-response,18,573150,0.0-18.0,6016d442222eb48891237986,636c51db8e68f986cf4ab8c9,636d025ac60be5e8993b95f6,,25161,"[""""tsg_comb/TestSeq004_7_GD_v13_000_GT_B.mp4""""]",1,1
16,,,,,,,,,,,,video-button-response,3,624437,0.0-3.0,5c732f631388ff0001100e6d,636c51db8e68f986cf4ab8c9,636d021e64b7ecce95355db3,,21883,"[""""tsg_comb/TestSeq001_1_GDDW_000_GT_A.mp4""""]",3,1
16,,,,,,,,,,,,video-button-response,18,463213,0.0-18.0,60fd02cf4e2e84d77af996bb,636c51db8e68f986cf4ab8c9,636d02c672e400bcc57c9ae3,,21590,"[""""tsg_comb/TestSeq003_4_GD_v13_000_SG_000_B.mp4""""]",1,1
16,,,,,,,,,,,,video-button-response,19,420011,0.0-19.0,5d555d997c447d001df372b1,636c51db8e68f986cf4ab8c9,636d02f33da335cd8525609c,,21868,"[""""tsg_comb/TestSeq006_0_GD_v13_000_SG_000_B.mp4""""]",3,1
16,,,,,,,,,,,,video-button-response,23,497836,0.0-23.0,5f0adabb2e2b8a000ba1dcf7,636c51db8e68f986cf4ab8c9,636d02a9b65f5d4cc148d072,,23976,"[""""tsg_comb/TestSeq001_2_GD_v13_000_SG_000_B.mp4""""]",1,1
16,,,,,,,,,,,,video-button-response,22,659588,0.0-22.0,5ba1a06b0686690001f514ae,636c51db8e68f986cf4ab8c9,636d01f95ac9d9c373872443,,23838,"[""""tsg_comb/TestSeq005_1_GDDW_000_GD_v13_000_B.mp4""""]",0,1
16,,,,,,,,,,,,video-button-response,24,490903,0.0-24.0,6148f390b233d5c1d397fd45,636c51db8e68f986cf4ab8c9,636d02ba85e871fe85073cd3,,21528,"[""""tsg_comb/TestSeq005_0_GDDW_000_GT_A.mp4""""]",4,1
16,,,,,,,,,,,,video-button-response,30,659155,0.0-30.0,60e89d7bb77ce411162d4b9d,636c51db8e68f986cf4ab8c9,636d0208f554429e6f30b905,,21340,"[""""tsg_comb/TestSeq004_5_GDDW_000_SG_000_B.mp4""""]",4,1
16,,,,,,,,,,,,video-button-response,19,594917,0.0-19.0,6016d442222eb48891237986,636c51db8e68f986cf4ab8c9,636d025ac60be5e8993b95f6,,21759,"[""""tsg_comb/TestSeq005_3_GD_v13_000_SG_000_B.mp4""""]",3,1
16,,,,,,,,,,,,video-button-response,30,679021,0.0-30.0,634da87b4998f19b0fc14703,636c51db8e68f986cf4ab8c9,636d01fca7aae7c41f256066,,21272,"[""""tsg_comb/TestSeq003_0_GDDW_000_SG_000_B.mp4""""]",1,1
16,,,,,,,,,,,,video-button-response,4,645609,0.0-4.0,5c732f631388ff0001100e6d,636c51db8e68f986cf4ab8c9,636d021e64b7ecce95355db3,,21172,"[""""tsg_comb/TestSeq004_6_GDDW_000_GT_A.mp4""""]",4,1
16,,,,,,,,,,,,video-button-response,19,485276,0.0-19.0,60fd02cf4e2e84d77af996bb,636c51db8e68f986cf4ab8c9,636d02c672e400bcc57c9ae3,,22055,"[""""tsg_comb/TestSeq004_3_GD_v13_000_SG_000_B.mp4""""]",3,1
16,,,,,,,,,,,,video-button-response,20,441861,0.0-20.0,5d555d997c447d001df372b1,636c51db8e68f986cf4ab8c9,636d02f33da335cd8525609c,,21846,"[""""tsg_comb/TestSeq001_2_GD_v13_000_GT_B.mp4""""]",3,1
16,,,,,,,,,,,,video-button-response,24,520540,0.0-24.0,5f0adabb2e2b8a000ba1dcf7,636c51db8e68f986cf4ab8c9,636d02a9b65f5d4cc148d072,,22699,"[""""tsg_comb/TestSeq006_1_GD_v13_000_SG_000_A.mp4""""]",2,1
16,,,,,,,,,,,,video-button-response,25,512119,0.0-25.0,6148f390b233d5c1d397fd45,636c51db8e68f986cf4ab8c9,636d02ba85e871fe85073cd3,,21211,"[""""tsg_comb/TestSeq002_5_GDDW_000_GT_B.mp4""""]",0,1
16,,,,,,,,,,,,video-button-response,31,681123,0.0-31.0,60e89d7bb77ce411162d4b9d,636c51db8e68f986cf4ab8c9,636d0208f554429e6f30b905,,21964,"[""""tsg_comb/TestSeq003_1_GDDW_000_GT_A.mp4""""]",2,1
16,,,,,,,,,,,,video-button-response,31,702296,0.0-31.0,634da87b4998f19b0fc14703,636c51db8e68f986cf4ab8c9,636d01fca7aae7c41f256066,,23270,"[""""tsg_comb/TestSeq004_0_GDDW_000_SG_000_A.mp4""""]",2,1
16,,,,,,,,,,,,video-button-response,5,666350,0.0-5.0,5c732f631388ff0001100e6d,636c51db8e68f986cf4ab8c9,636d021e64b7ecce95355db3,,20739,"[""""tsg_comb/TestSeq005_2_GD_v13_000_GT_A.mp4""""]",4,1
16,,,,,,,,,,,,video-button-response,23,689646,0.0-23.0,5ba1a06b0686690001f514ae,636c51db8e68f986cf4ab8c9,636d01f95ac9d9c373872443,,30044,"[""""tsg_comb/TestSeq001_4_GDDW_000_GT_B.mp4""""]",0,1
16,,,,,,,,,,,,video-button-response,20,506839,0.0-20.0,60fd02cf4e2e84d77af996bb,636c51db8e68f986cf4ab8c9,636d02c672e400bcc57c9ae3,,21559,"[""""tsg_comb/TestSeq002_2_GT_SG_000_A.mp4""""]",3,1
16,,,,,,,,,,,,video-button-response,21,462785,0.0-21.0,5d555d997c447d001df372b1,636c51db8e68f986cf4ab8c9,636d02f33da335cd8525609c,,20920,"[""""tsg_comb/TestSeq003_3_GDDW_000_SG_000_A.mp4""""]",3,1
16,,,,,,,,,,,,video-button-response,25,542510,0.0-25.0,5f0adabb2e2b8a000ba1dcf7,636c51db8e68f986cf4ab8c9,636d02a9b65f5d4cc148d072,,21962,"[""""tsg_comb/TestSeq003_1_GDDW_000_GT_A.mp4""""]",4,1
16,,,,,,,,,,,,video-button-response,26,532821,0.0-26.0,6148f390b233d5c1d397fd45,636c51db8e68f986cf4ab8c9,636d02ba85e871fe85073cd3,,20697,"[""""tsg_comb/TestSeq001_1_GD_v13_000_SG_000_A.mp4""""]",3,1
16,,,,,,,,,,,,video-button-response,32,702162,0.0-32.0,60e89d7bb77ce411162d4b9d,636c51db8e68f986cf4ab8c9,636d0208f554429e6f30b905,,21036,"[""""tsg_comb/TestSeq002_4_GD_v13_000_GT_A.mp4""""]",4,1
16,,,,,,,,,,,,video-button-response,6,687453,0.0-6.0,5c732f631388ff0001100e6d,636c51db8e68f986cf4ab8c9,636d021e64b7ecce95355db3,,21102,"[""""tsg_comb/TestSeq001_0_GDDW_000_GT_B.mp4""""]",1,1
16,,,,,,,,,,,,video-button-response,22,484233,0.0-22.0,5d555d997c447d001df372b1,636c51db8e68f986cf4ab8c9,636d02f33da335cd8525609c,,21445,"[""""tsg_comb/TestSeq004_1_GT_SG_000_B.mp4""""]",4,1
16,,,,,,,,,,,,video-button-response,24,713293,0.0-24.0,5ba1a06b0686690001f514ae,636c51db8e68f986cf4ab8c9,636d01f95ac9d9c373872443,,23633,"[""""tsg_comb/TestSeq004_5_GD_v13_000_SG_000_B.mp4""""]",3,1
16,,,,,,,,,,,,video-button-response,32,731745,0.0-32.0,634da87b4998f19b0fc14703,636c51db8e68f986cf4ab8c9,636d01fca7aae7c41f256066,,29444,"[""""tsg_comb/TestSeq001_2_GD_v13_000_SG_000_B.mp4""""]",2,1
16,,,,,,,,,,,,video-button-response,21,533772,0.0-21.0,60fd02cf4e2e84d77af996bb,636c51db8e68f986cf4ab8c9,636d02c672e400bcc57c9ae3,,26929,"[""""tsg_comb/TestSeq003_1_GDDW_000_SG_000_A.mp4""""]",2,1
16,,,,,,,,,,,,video-button-response,27,554119,0.0-27.0,6148f390b233d5c1d397fd45,636c51db8e68f986cf4ab8c9,636d02ba85e871fe85073cd3,,21292,"[""""tsg_comb/TestSeq001_3_GDDW_000_GT_A.mp4""""]",4,1
16,,,,,,,,,,,,video-button-response,33,724490,0.0-33.0,60e89d7bb77ce411162d4b9d,636c51db8e68f986cf4ab8c9,636d0208f554429e6f30b905,,22324,"[""""tsg_comb/TestSeq003_4_GDDW_000_GD_v13_000_B.mp4""""]",3,1
16,,,,,,,,,,,,video-button-response,7,709672,0.0-7.0,5c732f631388ff0001100e6d,636c51db8e68f986cf4ab8c9,636d021e64b7ecce95355db3,,22218,"[""""tsg_comb/TestSeq001_2_GD_v13_000_GT_B.mp4""""]",1,1
16,,,,,,,,,,,,video-button-response,23,505611,0.0-23.0,5d555d997c447d001df372b1,636c51db8e68f986cf4ab8c9,636d02f33da335cd8525609c,,21374,"[""""tsg_comb/TestSeq004_6_GD_v13_000_SG_000_A.mp4""""]",4,1
16,,,,,,,,,,,,video-button-response,25,735157,0.0-25.0,5ba1a06b0686690001f514ae,636c51db8e68f986cf4ab8c9,636d01f95ac9d9c373872443,,21850,"[""""tsg_comb/TestSeq005_3_GDDW_000_GT_B.mp4""""]",0,1
16,,,,,,,,,,,,video-button-response,22,554975,0.0-22.0,60fd02cf4e2e84d77af996bb,636c51db8e68f986cf4ab8c9,636d02c672e400bcc57c9ae3,,21198,"[""""tsg_comb/TestSeq001_5_GT_SG_000_A.mp4""""]",0,1
16,,,,,,,,,,,,video-button-response,28,575186,0.0-28.0,6148f390b233d5c1d397fd45,636c51db8e68f986cf4ab8c9,636d02ba85e871fe85073cd3,,21061,"[""""tsg_comb/TestSeq001_5_GDDW_000_GT_A.mp4""""]",4,1
16,,,,,,,,,,,,video-button-response,33,753131,0.0-33.0,634da87b4998f19b0fc14703,636c51db8e68f986cf4ab8c9,636d01fca7aae7c41f256066,,21379,"[""""tsg_comb/TestSeq001_1_GD_v13_000_SG_000_A.mp4""""]",4,1
16,,,,,,,,,,,,video-button-response,34,745538,0.0-34.0,60e89d7bb77ce411162d4b9d,636c51db8e68f986cf4ab8c9,636d0208f554429e6f30b905,,21044,"[""""tsg_comb/TestSeq005_3_GDDW_000_SG_000_B.mp4""""]",0,1
16,,,,,,,,,,,,video-button-response,8,731873,0.0-8.0,5c732f631388ff0001100e6d,636c51db8e68f986cf4ab8c9,636d021e64b7ecce95355db3,,22198,"[""""tsg_comb/TestSeq001_3_GDDW_000_SG_000_A.mp4""""]",2,1
16,,,,,,,,,,,,video-button-response,24,527197,0.0-24.0,5d555d997c447d001df372b1,636c51db8e68f986cf4ab8c9,636d02f33da335cd8525609c,,21582,"[""""tsg_comb/TestSeq002_4_GDDW_000_GD_v13_000_A.mp4""""]",1,1
16,,,,,,,,,,,,video-button-response,26,757498,0.0-26.0,5ba1a06b0686690001f514ae,636c51db8e68f986cf4ab8c9,636d01f95ac9d9c373872443,,22327,"[""""tsg_comb/TestSeq002_0_GD_v13_000_SG_000_A.mp4""""]",0,1
16,,,,,,,,,,,,video-button-response,34,777200,0.0-34.0,634da87b4998f19b0fc14703,636c51db8e68f986cf4ab8c9,636d01fca7aae7c41f256066,,24062,"[""""tsg_comb/TestSeq004_7_GDDW_000_GD_v13_000_B.mp4""""]",0,1
16,,,,,,,,,,,,video-button-response,20,693577,0.0-20.0,6016d442222eb48891237986,636c51db8e68f986cf4ab8c9,636d025ac60be5e8993b95f6,,98650,"[""""tsg_comb/TestSeq003_5_GDDW_000_SG_000_A.mp4""""]",3,1
16,,,,,,,,,,,,video-button-response,29,596535,0.0-29.0,6148f390b233d5c1d397fd45,636c51db8e68f986cf4ab8c9,636d02ba85e871fe85073cd3,,21343,"[""""tsg_comb/TestSeq005_2_GD_v13_000_GT_A.mp4""""]",4,1
16,,,,,,,,,,,,video-button-response,23,583742,0.0-23.0,60fd02cf4e2e84d77af996bb,636c51db8e68f986cf4ab8c9,636d02c672e400bcc57c9ae3,,28755,"[""""tsg_comb/TestSeq001_2_GDDW_000_GD_v13_000_B.mp4""""]",0,1
16,,,,,,,,,,,,video-button-response,26,611840,0.0-26.0,5f0adabb2e2b8a000ba1dcf7,636c51db8e68f986cf4ab8c9,636d02a9b65f5d4cc148d072,,69322,"[""""tsg_comb/TestSeq004_5_GD_v13_000_SG_000_B.mp4""""]",1,1
16,,,,,,,,,,,,video-button-response,35,768041,0.0-35.0,60e89d7bb77ce411162d4b9d,636c51db8e68f986cf4ab8c9,636d0208f554429e6f30b905,,22499,"[""""tsg_comb/TestSeq002_1_GDDW_000_GD_v13_000_B.mp4""""]",1,1
16,,,,,,,,,,,,video-button-response,9,752649,0.0-9.0,5c732f631388ff0001100e6d,636c51db8e68f986cf4ab8c9,636d021e64b7ecce95355db3,,20774,"[""""tsg_comb/TestSeq003_4_GDDW_000_SG_000_B.mp4""""]",1,1
16,,,,,,,,,,,,video-button-response,25,550269,0.0-25.0,5d555d997c447d001df372b1,636c51db8e68f986cf4ab8c9,636d02f33da335cd8525609c,,23068,"[""""tsg_comb/TestSeq006_1_GDDW_000_GD_v13_000_A.mp4""""]",3,1
16,,,,,,,,,,,,video-button-response,27,781177,0.0-27.0,5ba1a06b0686690001f514ae,636c51db8e68f986cf4ab8c9,636d01f95ac9d9c373872443,,23664,"[""""tsg_comb/TestSeq003_0_GD_v13_000_SG_000_B.mp4""""]",2,1
16,,,,,,,,,,,,video-button-response,35,800451,0.0-35.0,634da87b4998f19b0fc14703,636c51db8e68f986cf4ab8c9,636d01fca7aae7c41f256066,,23242,"[""""tsg_comb/TestSeq005_3_GD_v13_000_GT_B.mp4""""]",1,1
16,,,,,,,,,,,,video-button-response,21,715038,0.0-21.0,6016d442222eb48891237986,636c51db8e68f986cf4ab8c9,636d025ac60be5e8993b95f6,,21453,"[""""tsg_comb/TestSeq002_0_GD_v13_000_SG_000_A.mp4""""]",4,1
16,,,,,,,,,,,,video-button-response,30,617585,0.0-30.0,6148f390b233d5c1d397fd45,636c51db8e68f986cf4ab8c9,636d02ba85e871fe85073cd3,,21044,"[""""tsg_comb/TestSeq004_0_GDDW_000_SG_000_A.mp4""""]",0,1
16,,,,,,,,,,,,video-button-response,24,606075,0.0-24.0,60fd02cf4e2e84d77af996bb,636c51db8e68f986cf4ab8c9,636d02c672e400bcc57c9ae3,,22324,"[""""tsg_comb/TestSeq003_0_GT_SG_000_B.mp4""""]",2,1
16,,,,,,,,,,,,video-button-response,27,634153,0.0-27.0,5f0adabb2e2b8a000ba1dcf7,636c51db8e68f986cf4ab8c9,636d02a9b65f5d4cc148d072,,22299,"[""""tsg_comb/TestSeq005_2_GDDW_000_SG_000_A.mp4""""]",2,1
16,,,,,,,,,,,,video-button-response,36,789401,0.0-36.0,60e89d7bb77ce411162d4b9d,636c51db8e68f986cf4ab8c9,636d0208f554429e6f30b905,,21359,"[""""tsg_comb/TestSeq004_3_GT_SG_000_B.mp4""""]",3,1
16,,,,,,,,,,,,video-button-response,10,774595,0.0-10.0,5c732f631388ff0001100e6d,636c51db8e68f986cf4ab8c9,636d021e64b7ecce95355db3,,21945,"[""""tsg_comb/TestSeq004_0_GDDW_000_GD_v13_000_A.mp4""""]",3,1
16,,,,,,,,,,,,video-button-response,26,571420,0.0-26.0,5d555d997c447d001df372b1,636c51db8e68f986cf4ab8c9,636d02f33da335cd8525609c,,21148,"[""""tsg_comb/TestSeq003_2_GD_v13_000_SG_000_B.mp4""""]",3,1
16,,,,,,,,,,,,video-button-response,36,822157,0.0-36.0,634da87b4998f19b0fc14703,636c51db8e68f986cf4ab8c9,636d01fca7aae7c41f256066,,21699,"[""""tsg_comb/TestSeq004_3_GT_SG_000_B.mp4""""]",4,1
16,,,,,,,,,,,,video-button-response,28,806306,0.0-28.0,5ba1a06b0686690001f514ae,636c51db8e68f986cf4ab8c9,636d01f95ac9d9c373872443,,25110,"[""""tsg_comb/TestSeq002_3_GD_v13_000_GT_B.mp4""""]",2,1
16,,,,,,,,,,,,video-button-response,22,737993,0.0-22.0,6016d442222eb48891237986,636c51db8e68f986cf4ab8c9,636d025ac60be5e8993b95f6,,22948,"[""""tsg_comb/TestSeq002_3_GD_v13_000_SG_000_B.mp4""""]",1,1
16,,,,,,,,,,,,video-button-response,31,639234,0.0-31.0,6148f390b233d5c1d397fd45,636c51db8e68f986cf4ab8c9,636d02ba85e871fe85073cd3,,21644,"[""""tsg_comb/TestSeq002_4_GD_v13_000_GT_A.mp4""""]",3,1
16,,,,,,,,,,,,video-button-response,25,626932,0.0-25.0,60fd02cf4e2e84d77af996bb,636c51db8e68f986cf4ab8c9,636d02c672e400bcc57c9ae3,,20852,"[""""tsg_comb/TestSeq002_0_GT_SG_000_A.mp4""""]",3,1
16,,,,,,,,,,,,video-button-response,37,808697,0.0-37.0,60e89d7bb77ce411162d4b9d,636c51db8e68f986cf4ab8c9,636d0208f554429e6f30b905,,19293,"[""""tsg_comb/TestSeq003_6_GT_SG_000_B.mp4""""]",3,1
16,,,,,,,,,,,,video-button-response,11,796067,0.0-11.0,5c732f631388ff0001100e6d,636c51db8e68f986cf4ab8c9,636d021e64b7ecce95355db3,,21470,"[""""tsg_comb/TestSeq002_5_GT_SG_000_B.mp4""""]",4,1
16,,,,,,,,,,,,video-button-response,27,592861,0.0-27.0,5d555d997c447d001df372b1,636c51db8e68f986cf4ab8c9,636d02f33da335cd8525609c,,21437,"[""""tsg_comb/TestSeq002_3_GDDW_000_GT_B.mp4""""]",3,1
16,,,,,,,,,,,,video-button-response,28,669731,0.0-28.0,5f0adabb2e2b8a000ba1dcf7,636c51db8e68f986cf4ab8c9,636d02a9b65f5d4cc148d072,,35571,"[""""tsg_comb/TestSeq001_6_GDDW_000_SG_000_B.mp4""""]",1,1
16,,,,,,,,,,,,video-button-response,37,843864,0.0-37.0,634da87b4998f19b0fc14703,636c51db8e68f986cf4ab8c9,636d01fca7aae7c41f256066,,21700,"[""""tsg_comb/TestSeq003_1_GT_SG_000_A.mp4""""]",0,1
16,,,,,,,,,,,,video-button-response,26,644231,0.0-26.0,60fd02cf4e2e84d77af996bb,636c51db8e68f986cf4ab8c9,636d02c672e400bcc57c9ae3,,17295,"[""""tsg_comb/TestSeq003_6_GD_v13_000_SG_000_B.mp4""""]",2,1
16,,,,,,,,,,,,video-button-response,32,660701,0.0-32.0,6148f390b233d5c1d397fd45,636c51db8e68f986cf4ab8c9,636d02ba85e871fe85073cd3,,21462,"[""""tsg_comb/TestSeq003_0_GD_v13_000_SG_000_B.mp4""""]",4,1
16,,,,,,,,,,,,video-button-response,38,829762,0.0-38.0,60e89d7bb77ce411162d4b9d,636c51db8e68f986cf4ab8c9,636d0208f554429e6f30b905,,21062,"[""""tsg_comb/TestSeq006_1_GT_SG_000_A.mp4""""]",0,1
16,,,,,,,,,,,,video-button-response,12,817307,0.0-12.0,5c732f631388ff0001100e6d,636c51db8e68f986cf4ab8c9,636d021e64b7ecce95355db3,,21239,"[""""tsg_comb/TestSeq003_2_GT_SG_000_B.mp4""""]",4,1
16,,,,,,,,,,,,video-button-response,28,614697,0.0-28.0,5d555d997c447d001df372b1,636c51db8e68f986cf4ab8c9,636d02f33da335cd8525609c,,21831,"[""""tsg_comb/TestSeq005_1_GDDW_000_SG_000_B.mp4""""]",2,1
16,,,,,,,,,,,,video-button-response,27,664896,0.0-27.0,60fd02cf4e2e84d77af996bb,636c51db8e68f986cf4ab8c9,636d02c672e400bcc57c9ae3,,20661,"[""""tsg_comb/TestSeq006_0_GDDW_000_SG_000_B.mp4""""]",0,1
16,,,,,,,,,,,,video-button-response,38,865909,0.0-38.0,634da87b4998f19b0fc14703,636c51db8e68f986cf4ab8c9,636d01fca7aae7c41f256066,,22038,"[""""tsg_comb/TestSeq003_3_GDDW_000_SG_000_A.mp4""""]",3,1
16,,,,,,,,,,,,html-button-response,39,868474,0.0-39.0,634da87b4998f19b0fc14703,636c51db8e68f986cf4ab8c9,636d01fca7aae7c41f256066,"10/11/2022, 14:06:37",2561,<h2> Were you wearing <b> headphones </b> for the <b>entire duration </b> of this test? </h2>,0,1
16,,,,,,,,,,,,video-button-response,29,691613,0.0-29.0,5f0adabb2e2b8a000ba1dcf7,636c51db8e68f986cf4ab8c9,636d02a9b65f5d4cc148d072,,21878,"[""""tsg_comb/TestSeq003_5_GDDW_000_SG_000_A.mp4""""]",2,1
16,,,,,,,,,,,,video-button-response,33,682618,0.0-33.0,6148f390b233d5c1d397fd45,636c51db8e68f986cf4ab8c9,636d02ba85e871fe85073cd3,,21910,"[""""tsg_comb/TestSeq003_5_GDDW_000_GD_v13_000_A.mp4""""]",3,1
16,,,,,,,,,,,,video-button-response,29,855357,0.0-29.0,5ba1a06b0686690001f514ae,636c51db8e68f986cf4ab8c9,636d01f95ac9d9c373872443,,49039,"[""""tsg_comb/TestSeq004_0_GDDW_000_GT_A.mp4""""]",3,1
16,,,,,,,,,,,,video-button-response,13,838674,0.0-13.0,5c732f631388ff0001100e6d,636c51db8e68f986cf4ab8c9,636d021e64b7ecce95355db3,,21365,"[""""tsg_comb/TestSeq006_1_GDDW_000_SG_000_A.mp4""""]",3,1
16,,,,,,,,,,,,video-button-response,24,784811,0.0-24.0,6016d442222eb48891237986,636c51db8e68f986cf4ab8c9,636d025ac60be5e8993b95f6,,23791,"[""""tsg_comb/TestSeq003_4_GT_SG_000_B.mp4""""]",1,1
16,,,,,,,,,,,,video-button-response,29,635465,0.0-29.0,5d555d997c447d001df372b1,636c51db8e68f986cf4ab8c9,636d02f33da335cd8525609c,,20764,"[""""tsg_comb/TestSeq002_6_GDDW_000_GT_A.mp4""""]",0,1
16,,,,,,,,,,,,video-button-response,30,713394,0.0-30.0,5f0adabb2e2b8a000ba1dcf7,636c51db8e68f986cf4ab8c9,636d02a9b65f5d4cc148d072,,21778,"[""""tsg_comb/TestSeq005_1_GDDW_000_GT_B.mp4""""]",0,1
16,,,,,,,,,,,,video-button-response,28,687180,0.0-28.0,60fd02cf4e2e84d77af996bb,636c51db8e68f986cf4ab8c9,636d02c672e400bcc57c9ae3,,22278,"[""""tsg_comb/TestSeq003_5_GDDW_000_GT_A.mp4""""]",1,1
16,,,,,,,,,,,,video-button-response,25,808051,0.0-25.0,6016d442222eb48891237986,636c51db8e68f986cf4ab8c9,636d025ac60be5e8993b95f6,,23232,"[""""tsg_comb/TestSeq003_3_GD_v13_000_SG_000_A.mp4""""]",3,1
16,,,,,,,,,,,,video-button-response,34,709649,0.0-34.0,6148f390b233d5c1d397fd45,636c51db8e68f986cf4ab8c9,636d02ba85e871fe85073cd3,,27027,"[""""tsg_comb/TestSeq002_6_GDDW_000_SG_000_A.mp4""""]",3,1
16,,,,,,,,,,,,video-button-response,30,878307,0.0-30.0,5ba1a06b0686690001f514ae,636c51db8e68f986cf4ab8c9,636d01f95ac9d9c373872443,,22936,"[""""tsg_comb/TestSeq003_3_GDDW_000_GD_v13_000_A.mp4""""]",3,1
16,,,,,,,,,,,,video-button-response,14,860828,0.0-14.0,5c732f631388ff0001100e6d,636c51db8e68f986cf4ab8c9,636d021e64b7ecce95355db3,,22152,"[""""tsg_comb/TestSeq003_1_GD_v13_000_SG_000_A.mp4""""]",2,1
16,,,,,,,,,,,,video-button-response,30,656336,0.0-30.0,5d555d997c447d001df372b1,636c51db8e68f986cf4ab8c9,636d02f33da335cd8525609c,,20867,"[""""tsg_comb/TestSeq004_4_GDDW_000_SG_000_A.mp4""""]",2,1
16,,,,,,,,,,,,video-button-response,29,709457,0.0-29.0,60fd02cf4e2e84d77af996bb,636c51db8e68f986cf4ab8c9,636d02c672e400bcc57c9ae3,,22272,"[""""tsg_comb/TestSeq004_4_GD_v13_000_GT_A.mp4""""]",4,1
16,,,,,,,,,,,,video-button-response,31,737878,0.0-31.0,5f0adabb2e2b8a000ba1dcf7,636c51db8e68f986cf4ab8c9,636d02a9b65f5d4cc148d072,,24481,"[""""tsg_comb/TestSeq001_3_GDDW_000_GD_v13_000_A.mp4""""]",2,1
16,,,,,,,,,,,,video-button-response,26,829124,0.0-26.0,6016d442222eb48891237986,636c51db8e68f986cf4ab8c9,636d025ac60be5e8993b95f6,,21062,"[""""tsg_comb/TestSeq006_0_GDDW_000_GD_v13_000_B.mp4""""]",0,1
16,,,,,,,,,,,,video-button-response,35,731001,0.0-35.0,6148f390b233d5c1d397fd45,636c51db8e68f986cf4ab8c9,636d02ba85e871fe85073cd3,,21347,"[""""tsg_comb/TestSeq003_1_GDDW_000_GD_v13_000_A.mp4""""]",4,1
16,,,,,,,,,,,,video-button-response,15,881514,0.0-15.0,5c732f631388ff0001100e6d,636c51db8e68f986cf4ab8c9,636d021e64b7ecce95355db3,,20684,"[""""tsg_comb/TestSeq002_6_GD_v13_000_SG_000_A.mp4""""]",1,1
16,,,,,,,,,,,,video-button-response,31,902987,0.0-31.0,5ba1a06b0686690001f514ae,636c51db8e68f986cf4ab8c9,636d01f95ac9d9c373872443,,24668,"[""""tsg_comb/TestSeq004_2_GT_SG_000_A.mp4""""]",1,1
16,,,,,,,,,,,,video-button-response,31,677077,0.0-31.0,5d555d997c447d001df372b1,636c51db8e68f986cf4ab8c9,636d02f33da335cd8525609c,,20737,"[""""tsg_comb/TestSeq001_5_GDDW_000_GT_A.mp4""""]",4,1
16,,,,,,,,,,,,video-button-response,30,731625,0.0-30.0,60fd02cf4e2e84d77af996bb,636c51db8e68f986cf4ab8c9,636d02c672e400bcc57c9ae3,,22165,"[""""tsg_comb/TestSeq003_3_GT_SG_000_A.mp4""""]",1,1
16,,,,,,,,,,,,video-button-response,32,759658,0.0-32.0,5f0adabb2e2b8a000ba1dcf7,636c51db8e68f986cf4ab8c9,636d02a9b65f5d4cc148d072,,21775,"[""""tsg_comb/TestSeq002_2_GDDW_000_GD_v13_000_A.mp4""""]",3,1
16,,,,,,,,,,,,video-button-response,36,751950,0.0-36.0,6148f390b233d5c1d397fd45,636c51db8e68f986cf4ab8c9,636d02ba85e871fe85073cd3,,20944,"[""""tsg_comb/TestSeq003_4_GDDW_000_SG_000_B.mp4""""]",0,1
16,,,,,,,,,,,,video-button-response,16,902445,0.0-16.0,5c732f631388ff0001100e6d,636c51db8e68f986cf4ab8c9,636d021e64b7ecce95355db3,,20930,"[""""tsg_comb/TestSeq004_4_GDDW_000_GD_v13_000_A.mp4""""]",1,1
16,,,,,,,,,,,,video-button-response,32,925173,0.0-32.0,5ba1a06b0686690001f514ae,636c51db8e68f986cf4ab8c9,636d01f95ac9d9c373872443,,22173,"[""""tsg_comb/TestSeq001_2_GDDW_000_GT_B.mp4""""]",0,1
16,,,,,,,,,,,,video-button-response,32,698317,0.0-32.0,5d555d997c447d001df372b1,636c51db8e68f986cf4ab8c9,636d02f33da335cd8525609c,,21235,"[""""tsg_comb/TestSeq001_1_GT_SG_000_A.mp4""""]",1,1
16,,,,,,,,,,,,video-button-response,27,862692,0.0-27.0,6016d442222eb48891237986,636c51db8e68f986cf4ab8c9,636d025ac60be5e8993b95f6,,33560,"[""""tsg_comb/TestSeq001_6_GT_SG_000_B.mp4""""]",3,1
16,,,,,,,,,,,,video-button-response,31,753874,0.0-31.0,60fd02cf4e2e84d77af996bb,636c51db8e68f986cf4ab8c9,636d02c672e400bcc57c9ae3,,22245,"[""""tsg_comb/TestSeq002_3_GD_v13_000_SG_000_B.mp4""""]",3,1
16,,,,,,,,,,,,video-button-response,17,925286,0.0-17.0,5c732f631388ff0001100e6d,636c51db8e68f986cf4ab8c9,636d021e64b7ecce95355db3,,22839,"[""""tsg_comb/TestSeq005_0_GT_SG_000_A.mp4""""]",0,1
16,,,,,,,,,,,,video-button-response,33,947547,0.0-33.0,5ba1a06b0686690001f514ae,636c51db8e68f986cf4ab8c9,636d01f95ac9d9c373872443,,22358,"[""""tsg_comb/TestSeq004_1_GDDW_000_GD_v13_000_B.mp4""""]",0,1
16,,,,,,,,,,,,video-button-response,37,778385,0.0-37.0,6148f390b233d5c1d397fd45,636c51db8e68f986cf4ab8c9,636d02ba85e871fe85073cd3,,26430,"[""""tsg_comb/TestSeq001_4_GDDW_000_SG_000_B.mp4""""]",2,1
16,,,,,,,,,,,,video-button-response,33,719729,0.0-33.0,5d555d997c447d001df372b1,636c51db8e68f986cf4ab8c9,636d02f33da335cd8525609c,,21409,"[""""tsg_comb/TestSeq001_6_GD_v13_000_SG_000_B.mp4""""]",2,1
16,,,,,,,,,,,,video-button-response,28,884142,0.0-28.0,6016d442222eb48891237986,636c51db8e68f986cf4ab8c9,636d025ac60be5e8993b95f6,,21443,"[""""tsg_comb/TestSeq004_4_GDDW_000_GT_A.mp4""""]",4,1
16,,,,,,,,,,,,video-button-response,33,796913,0.0-33.0,5f0adabb2e2b8a000ba1dcf7,636c51db8e68f986cf4ab8c9,636d02a9b65f5d4cc148d072,,37251,"[""""tsg_comb/TestSeq004_1_GD_v13_000_GT_B.mp4""""]",0,1
16,,,,,,,,,,,,video-button-response,32,775174,0.0-32.0,60fd02cf4e2e84d77af996bb,636c51db8e68f986cf4ab8c9,636d02c672e400bcc57c9ae3,,21296,"[""""tsg_comb/TestSeq001_3_GD_v13_000_GT_A.mp4""""]",4,1
16,,,,,,,,,,,,video-button-response,18,946214,0.0-18.0,5c732f631388ff0001100e6d,636c51db8e68f986cf4ab8c9,636d021e64b7ecce95355db3,,20926,"[""""tsg_comb/TestSeq004_3_GT_SG_000_B.mp4""""]",4,1
16,,,,,,,,,,,,video-button-response,38,800450,0.0-38.0,6148f390b233d5c1d397fd45,636c51db8e68f986cf4ab8c9,636d02ba85e871fe85073cd3,,22060,"[""""tsg_comb/TestSeq002_2_GD_v13_000_GT_A.mp4""""]",4,1
16,,,,,,,,,,,,video-button-response,34,741541,0.0-34.0,5d555d997c447d001df372b1,636c51db8e68f986cf4ab8c9,636d02f33da335cd8525609c,,21809,"[""""tsg_comb/TestSeq001_3_GD_v13_000_SG_000_A.mp4""""]",2,1
16,,,,,,,,,,,,video-button-response,34,818957,0.0-34.0,5f0adabb2e2b8a000ba1dcf7,636c51db8e68f986cf4ab8c9,636d02a9b65f5d4cc148d072,,22037,"[""""tsg_comb/TestSeq001_0_GD_v13_000_GT_B.mp4""""]",0,1
16,,,,,,,,,,,,video-button-response,29,909130,0.0-29.0,6016d442222eb48891237986,636c51db8e68f986cf4ab8c9,636d025ac60be5e8993b95f6,,24981,"[""""tsg_comb/TestSeq004_6_GDDW_000_GT_A.mp4""""]",3,1
16,,,,,,,,,,,,video-button-response,33,796598,0.0-33.0,60fd02cf4e2e84d77af996bb,636c51db8e68f986cf4ab8c9,636d02c672e400bcc57c9ae3,,21418,"[""""tsg_comb/TestSeq006_1_GT_SG_000_A.mp4""""]",1,1
16,,,,,,,,,,,,video-button-response,19,967228,0.0-19.0,5c732f631388ff0001100e6d,636c51db8e68f986cf4ab8c9,636d021e64b7ecce95355db3,,21012,"[""""tsg_comb/TestSeq002_1_GDDW_000_GD_v13_000_B.mp4""""]",0,1
16,,,,,,,,,,,,video-button-response,34,993891,0.0-34.0,5ba1a06b0686690001f514ae,636c51db8e68f986cf4ab8c9,636d01f95ac9d9c373872443,,46329,"[""""tsg_comb/TestSeq004_7_GD_v13_000_GT_B.mp4""""]",2,1
16,,,,,,,,,,,,video-button-response,35,840448,0.0-35.0,5f0adabb2e2b8a000ba1dcf7,636c51db8e68f986cf4ab8c9,636d02a9b65f5d4cc148d072,,21486,"[""""tsg_comb/TestSeq004_3_GD_v13_000_SG_000_B.mp4""""]",2,1
16,,,,,,,,,,,,video-button-response,30,932816,0.0-30.0,6016d442222eb48891237986,636c51db8e68f986cf4ab8c9,636d025ac60be5e8993b95f6,,23677,"[""""tsg_comb/TestSeq001_4_GDDW_000_GD_v13_000_B.mp4""""]",4,1
16,,,,,,,,,,,,video-button-response,34,823176,0.0-34.0,60fd02cf4e2e84d77af996bb,636c51db8e68f986cf4ab8c9,636d02c672e400bcc57c9ae3,,26563,"[""""tsg_comb/TestSeq002_5_GDDW_000_GD_v13_000_B.mp4""""]",1,1
16,,,,,,,,,,,,video-button-response,20,988256,0.0-20.0,5c732f631388ff0001100e6d,636c51db8e68f986cf4ab8c9,636d021e64b7ecce95355db3,,21027,"[""""tsg_comb/TestSeq002_3_GT_SG_000_B.mp4""""]",3,1
16,,,,,,,,,,,,video-button-response,36,784795,0.0-36.0,5d555d997c447d001df372b1,636c51db8e68f986cf4ab8c9,636d02f33da335cd8525609c,,21129,"[""""tsg_comb/TestSeq004_7_GD_v13_000_GT_B.mp4""""]",0,1
16,,,,,,,,,,,,video-button-response,35,1016677,0.0-35.0,5ba1a06b0686690001f514ae,636c51db8e68f986cf4ab8c9,636d01f95ac9d9c373872443,,22771,"[""""tsg_comb/TestSeq004_6_GT_SG_000_A.mp4""""]",1,1
16,,,,,,,,,,,,video-button-response,36,862308,0.0-36.0,5f0adabb2e2b8a000ba1dcf7,636c51db8e68f986cf4ab8c9,636d02a9b65f5d4cc148d072,,21854,"[""""tsg_comb/TestSeq002_1_GD_v13_000_GT_B.mp4""""]",3,1
16,,,,,,,,,,,,video-button-response,35,843735,0.0-35.0,60fd02cf4e2e84d77af996bb,636c51db8e68f986cf4ab8c9,636d02c672e400bcc57c9ae3,,20553,"[""""tsg_comb/TestSeq005_3_GDDW_000_GT_B.mp4""""]",3,1
16,,,,,,,,,,,,video-button-response,21,1010622,0.0-21.0,5c732f631388ff0001100e6d,636c51db8e68f986cf4ab8c9,636d021e64b7ecce95355db3,,22364,"[""""tsg_comb/TestSeq002_2_GD_v13_000_SG_000_A.mp4""""]",3,1
16,,,,,,,,,,,,video-button-response,37,803677,0.0-37.0,5d555d997c447d001df372b1,636c51db8e68f986cf4ab8c9,636d02f33da335cd8525609c,,18878,"[""""tsg_comb/TestSeq003_6_GT_SG_000_B.mp4""""]",4,1
16,,,,,,,,,,,,video-button-response,31,964351,0.0-31.0,6016d442222eb48891237986,636c51db8e68f986cf4ab8c9,636d025ac60be5e8993b95f6,,31528,"[""""tsg_comb/TestSeq002_5_GT_SG_000_B.mp4""""]",3,1
16,,,,,,,,,,,,video-button-response,36,1040172,0.0-36.0,5ba1a06b0686690001f514ae,636c51db8e68f986cf4ab8c9,636d01f95ac9d9c373872443,,23479,"[""""tsg_comb/TestSeq003_5_GT_SG_000_A.mp4""""]",1,1
16,,,,,,,,,,,,video-button-response,37,883717,0.0-37.0,5f0adabb2e2b8a000ba1dcf7,636c51db8e68f986cf4ab8c9,636d02a9b65f5d4cc148d072,,21404,"[""""tsg_comb/TestSeq003_0_GDDW_000_GT_B.mp4""""]",0,1
16,,,,,,,,,,,,video-button-response,36,865164,0.0-36.0,60fd02cf4e2e84d77af996bb,636c51db8e68f986cf4ab8c9,636d02c672e400bcc57c9ae3,,21425,"[""""tsg_comb/TestSeq004_7_GD_v13_000_GT_B.mp4""""]",4,1
16,,,,,,,,,,,,video-button-response,22,1031571,0.0-22.0,5c732f631388ff0001100e6d,636c51db8e68f986cf4ab8c9,636d021e64b7ecce95355db3,,20949,"[""""tsg_comb/TestSeq002_0_GD_v13_000_GT_A.mp4""""]",3,1
16,,,,,,,,,,,,video-button-response,38,824923,0.0-38.0,5d555d997c447d001df372b1,636c51db8e68f986cf4ab8c9,636d02f33da335cd8525609c,,21242,"[""""tsg_comb/TestSeq001_4_GT_SG_000_B.mp4""""]",3,1
16,,,,,,,,,,,,html-button-response,39,826702,0.0-39.0,5d555d997c447d001df372b1,636c51db8e68f986cf4ab8c9,636d02f33da335cd8525609c,"10/11/2022, 14:10:02",1776,<h2> Were you wearing <b> headphones </b> for the <b>entire duration </b> of this test? </h2>,0,1
16,,,,,,,,,,,,video-button-response,32,986550,0.0-32.0,6016d442222eb48891237986,636c51db8e68f986cf4ab8c9,636d025ac60be5e8993b95f6,,22192,"[""""tsg_comb/TestSeq004_5_GD_v13_000_GT_B.mp4""""]",4,1
16,,,,,,,,,,,,video-button-response,37,1062237,0.0-37.0,5ba1a06b0686690001f514ae,636c51db8e68f986cf4ab8c9,636d01f95ac9d9c373872443,,22045,"[""""tsg_comb/TestSeq001_6_GD_v13_000_SG_000_B.mp4""""]",3,1
16,,,,,,,,,,,,video-button-response,38,909313,0.0-38.0,5f0adabb2e2b8a000ba1dcf7,636c51db8e68f986cf4ab8c9,636d02a9b65f5d4cc148d072,,25592,"[""""tsg_comb/TestSeq002_5_GDDW_000_GD_v13_000_B.mp4""""]",2,1
16,,,,,,,,,,,,html-button-response,39,911735,0.0-39.0,5f0adabb2e2b8a000ba1dcf7,636c51db8e68f986cf4ab8c9,636d02a9b65f5d4cc148d072,"11/10/2022, 2:10:15 PM",2416,<h2> Were you wearing <b> headphones </b> for the <b>entire duration </b> of this test? </h2>,0,1
16,,,,,,,,,,,,video-button-response,37,886017,0.0-37.0,60fd02cf4e2e84d77af996bb,636c51db8e68f986cf4ab8c9,636d02c672e400bcc57c9ae3,,20849,"[""""tsg_comb/TestSeq002_6_GDDW_000_SG_000_A.mp4""""]",1,1
16,,,,,,,,,,,,video-button-response,23,1053535,0.0-23.0,5c732f631388ff0001100e6d,636c51db8e68f986cf4ab8c9,636d021e64b7ecce95355db3,,21962,"[""""tsg_comb/TestSeq004_2_GDDW_000_GD_v13_000_A.mp4""""]",4,1
16,,,,,,,,,,,,video-button-response,33,1008053,0.0-33.0,6016d442222eb48891237986,636c51db8e68f986cf4ab8c9,636d025ac60be5e8993b95f6,,21493,"[""""tsg_comb/TestSeq006_1_GDDW_000_SG_000_A.mp4""""]",1,1
16,,,,,,,,,,,,video-button-response,38,1084664,0.0-38.0,5ba1a06b0686690001f514ae,636c51db8e68f986cf4ab8c9,636d01f95ac9d9c373872443,,22414,"[""""tsg_comb/TestSeq002_4_GD_v13_000_GT_A.mp4""""]",0,1
16,,,,,,,,,,,,html-button-response,39,1089058,0.0-39.0,5ba1a06b0686690001f514ae,636c51db8e68f986cf4ab8c9,636d01f95ac9d9c373872443,"10/11/2022, 14:10:35",4380,<h2> Were you wearing <b> headphones </b> for the <b>entire duration </b> of this test? </h2>,0,1
16,,,,,,,,,,,,video-button-response,38,908344,0.0-38.0,60fd02cf4e2e84d77af996bb,636c51db8e68f986cf4ab8c9,636d02c672e400bcc57c9ae3,,22322,"[""""tsg_comb/TestSeq002_4_GD_v13_000_GT_A.mp4""""]",1,1
16,,,,,,,,,,,,html-button-response,39,910350,0.0-39.0,60fd02cf4e2e84d77af996bb,636c51db8e68f986cf4ab8c9,636d02c672e400bcc57c9ae3,"10/11/2022, 14:10:38",2003,<h2> Were you wearing <b> headphones </b> for the <b>entire duration </b> of this test? </h2>,0,1
16,,,,,,,,,,,,html-keyboard-response,40,1094062,0.0-40.0,5ba1a06b0686690001f514ae,636c51db8e68f986cf4ab8c9,636d01f95ac9d9c373872443,"10/11/2022, 14:10:40",4987,<p>You've completed the test. Thank you for participating!</p,,1
16, <p>Press any key to return to Prolific and complete the study</p>, ,,,,,,,,,,,,,,,,,,,,,
16,,,,,,,,,,,,video-button-response,24,1075051,0.0-24.0,5c732f631388ff0001100e6d,636c51db8e68f986cf4ab8c9,636d021e64b7ecce95355db3,,21514,"[""""tsg_comb/TestSeq003_5_GT_SG_000_A.mp4""""]",1,1
16,,,,,,,,,,,,video-button-response,34,1034502,0.0-34.0,6016d442222eb48891237986,636c51db8e68f986cf4ab8c9,636d025ac60be5e8993b95f6,,26440,"[""""tsg_comb/TestSeq002_6_GT_SG_000_A.mp4""""]",4,1
16,,,,,,,,,,,,video-button-response,25,1095979,0.0-25.0,5c732f631388ff0001100e6d,636c51db8e68f986cf4ab8c9,636d021e64b7ecce95355db3,,20927,"[""""tsg_comb/TestSeq003_0_GDDW_000_GT_B.mp4""""]",0,1
16,,,,,,,,,,,,video-button-response,35,1065785,0.0-35.0,6016d442222eb48891237986,636c51db8e68f986cf4ab8c9,636d025ac60be5e8993b95f6,,31273,"[""""tsg_comb/TestSeq005_1_GDDW_000_GD_v13_000_B.mp4""""]",3,1
16,,,,,,,,,,,,video-button-response,26,1117125,0.0-26.0,5c732f631388ff0001100e6d,636c51db8e68f986cf4ab8c9,636d021e64b7ecce95355db3,,21144,"[""""tsg_comb/TestSeq005_4_GDDW_000_GD_v13_000_A.mp4""""]",3,1
16,,,,,,,,,,,,video-button-response,36,1087372,0.0-36.0,6016d442222eb48891237986,636c51db8e68f986cf4ab8c9,636d025ac60be5e8993b95f6,,21580,"[""""tsg_comb/TestSeq005_0_GD_v13_000_SG_000_A.mp4""""]",1,1
16,,,,,,,,,,,,video-button-response,27,1140694,0.0-27.0,5c732f631388ff0001100e6d,636c51db8e68f986cf4ab8c9,636d021e64b7ecce95355db3,,23568,"[""""tsg_comb/TestSeq001_6_GD_v13_000_GT_B.mp4""""]",3,1
16,,,,,,,,,,,,video-button-response,37,1111044,0.0-37.0,6016d442222eb48891237986,636c51db8e68f986cf4ab8c9,636d025ac60be5e8993b95f6,,23663,"[""""tsg_comb/TestSeq001_2_GDDW_000_SG_000_B.mp4""""]",3,1
16,,,,,,,,,,,,video-button-response,28,1161845,0.0-28.0,5c732f631388ff0001100e6d,636c51db8e68f986cf4ab8c9,636d021e64b7ecce95355db3,,21149,"[""""tsg_comb/TestSeq006_0_GDDW_000_GD_v13_000_B.mp4""""]",3,1
16,,,,,,,,,,,,video-button-response,29,1182772,0.0-29.0,5c732f631388ff0001100e6d,636c51db8e68f986cf4ab8c9,636d021e64b7ecce95355db3,,20926,"[""""tsg_comb/TestSeq004_7_GDDW_000_GT_B.mp4""""]",1,1
16,,,,,,,,,,,,video-button-response,38,1138378,0.0-38.0,6016d442222eb48891237986,636c51db8e68f986cf4ab8c9,636d025ac60be5e8993b95f6,,27324,"[""""tsg_comb/TestSeq004_0_GDDW_000_SG_000_A.mp4""""]",1,1
16,,,,,,,,,,,,html-button-response,39,1142472,0.0-39.0,6016d442222eb48891237986,636c51db8e68f986cf4ab8c9,636d025ac60be5e8993b95f6,"11/10/2022, 2:12:38 PM",4090,<h2> Were you wearing <b> headphones </b> for the <b>entire duration </b> of this test? </h2>,0,1
16,,,,,,,,,,,,video-button-response,30,1204019,0.0-30.0,5c732f631388ff0001100e6d,636c51db8e68f986cf4ab8c9,636d021e64b7ecce95355db3,,21244,"[""""tsg_comb/TestSeq005_1_GDDW_000_SG_000_B.mp4""""]",1,1
16,,,,,,,,,,,,video-button-response,31,1224776,0.0-31.0,5c732f631388ff0001100e6d,636c51db8e68f986cf4ab8c9,636d021e64b7ecce95355db3,,20756,"[""""tsg_comb/TestSeq001_4_GDDW_000_GT_B.mp4""""]",0,1
16,,,,,,,,,,,,video-button-response,32,1243429,0.0-32.0,5c732f631388ff0001100e6d,636c51db8e68f986cf4ab8c9,636d021e64b7ecce95355db3,,18650,"[""""tsg_comb/TestSeq003_6_GD_v13_000_GT_B.mp4""""]",1,1
16,,,,,,,,,,,,video-button-response,33,1264106,0.0-33.0,5c732f631388ff0001100e6d,636c51db8e68f986cf4ab8c9,636d021e64b7ecce95355db3,,20676,"[""""tsg_comb/TestSeq001_5_GDDW_000_SG_000_A.mp4""""]",1,1
16,,,,,,,,,,,,video-button-response,34,1284748,0.0-34.0,5c732f631388ff0001100e6d,636c51db8e68f986cf4ab8c9,636d021e64b7ecce95355db3,,20641,"[""""tsg_comb/TestSeq004_1_GD_v13_000_SG_000_B.mp4""""]",3,1
16,,,,,,,,,,,,video-button-response,35,1306172,0.0-35.0,5c732f631388ff0001100e6d,636c51db8e68f986cf4ab8c9,636d021e64b7ecce95355db3,,21422,"[""""tsg_comb/TestSeq004_5_GDDW_000_SG_000_B.mp4""""]",2,1
16,,,,,,,,,,,,video-button-response,36,1326904,0.0-36.0,5c732f631388ff0001100e6d,636c51db8e68f986cf4ab8c9,636d021e64b7ecce95355db3,,20730,"[""""tsg_comb/TestSeq002_4_GD_v13_000_SG_000_A.mp4""""]",1,1
16,,,,,,,,,,,,video-button-response,37,1348868,0.0-37.0,5c732f631388ff0001100e6d,636c51db8e68f986cf4ab8c9,636d021e64b7ecce95355db3,,21962,"[""""tsg_comb/TestSeq003_3_GD_v13_000_SG_000_A.mp4""""]",1,1
16,,,,,,,,,,,,video-button-response,38,1370110,0.0-38.0,5c732f631388ff0001100e6d,636c51db8e68f986cf4ab8c9,636d021e64b7ecce95355db3,,21240,"[""""tsg_comb/TestSeq005_3_GD_v13_000_GT_B.mp4""""]",3,1
16,,,,,,,,,,,,html-button-response,39,1373412,0.0-39.0,5c732f631388ff0001100e6d,636c51db8e68f986cf4ab8c9,636d021e64b7ecce95355db3,"11/10/2022, 9:17:23 AM",3300,<h2> Were you wearing <b> headphones </b> for the <b>entire duration </b> of this test? </h2>,0,1
17,1264,627,TRUE,chrome,107.00.00,FALSE,Windows 10,TRUE,61.53.00,TRUE,TRUE,browser-check,0,2575,0.0-0.0,5ce1372c55fe0d001869c8d8,636c51db8e68f986cf4ab8c9,636d13413b907a7681c702a0,"10/11/2022, 15:05:44",,,,1
17,,,,,,,,,,,,html-button-response,1,58887,0.0-1.0,5ce1372c55fe0d001869c8d8,636c51db8e68f986cf4ab8c9,636d13413b907a7681c702a0,"10/11/2022, 15:06:40","56294"",",,,1
18,1700,1390,TRUE,chrome,107.00.00,FALSE,Mac OS,TRUE,30.31.00,TRUE,TRUE,browser-check,0,1995,0.0-0.0,,,,"11/11/2022, 11:42:37",,,,2
18,,,,,,,,,,,,html-button-response,1,4499,0.0-1.0,,,,"11/11/2022, 11:42:39","2486"",",,,2
18,,,,,,,,,,,,html-button-response,2,6856,0.0-2.0,,,,"11/11/2022, 11:42:42",2354,<h2> Are you using headphones right now? </h2>,0,2
18,,,,,,,,,,,,video-button-response,3,36541,0.0-3.0,,,,,29678,"[""""tsg_comb/TestSeq003_4_GDDW_000_GT_B.mp4""""]",4,2
18,,,,,,,,,,,,video-button-response,4,60520,0.0-4.0,,,,,23970,"[""""tsg_comb/TestSeq001_2_GD_v13_000_SG_000_B.mp4""""]",4,2
18,,,,,,,,,,,,video-button-response,5,97747,0.0-5.0,,,,,37222,"[""""tsg_comb/TestSeq004_0_GDDW_000_SG_000_A.mp4""""]",4,2
18,,,,,,,,,,,,video-button-response,6,113625,0.0-6.0,,,,,15873,"[""""tsg_comb/TestSeq003_2_GD_v13_000_GT_B.mp4""""]",4,2
18,,,,,,,,,,,,video-button-response,7,134512,0.0-7.0,,,,,20881,"[""""tsg_comb/TestSeq004_1_GDDW_000_GT_B.mp4""""]",4,2
18,,,,,,,,,,,,video-button-response,8,160184,0.0-8.0,,,,,25667,"[""""tsg_comb/TestSeq004_3_GDDW_000_GD_v13_000_B.mp4""""]",4,2
18,,,,,,,,,,,,video-button-response,9,179024,0.0-9.0,,,,,18836,"[""""tsg_comb/TestSeq003_6_GDDW_000_GT_B.mp4""""]",4,2
18,,,,,,,,,,,,video-button-response,10,200193,0.0-10.0,,,,,21165,"[""""attn/attention1.mp4""""]",4,2
19,2218,1530,TRUE,chrome,107.00.00,FALSE,Mac OS,TRUE,30.25.00,TRUE,TRUE,browser-check,0,2017,0.0-0.0,,,,"11/11/2022, 11:58:05",,,,2
19,,,,,,,,,,,,html-button-response,1,3636,0.0-1.0,,,,"11/11/2022, 11:58:06","1602"",",,,2
19,,,,,,,,,,,,html-button-response,2,5507,0.0-2.0,,,,"11/11/2022, 11:58:08",1869,<h2> Are you using headphones right now? </h2>,0,2
19,,,,,,,,,,,,video-button-response,3,27100,0.0-3.0,,,,,21588,"[""""tsg_comb/TestSeq004_6_GDDW_000_GD_v13_000_A.mp4""""]",4,2
19,,,,,,,,,,,,video-button-response,4,71916,0.0-4.0,,,,,44812,"[""""tsg_comb/TestSeq002_5_GDDW_000_GT_B.mp4""""]",4,2
19,,,,,,,,,,,,video-button-response,5,93460,0.0-5.0,,,,,21541,"[""""tsg_comb/TestSeq002_1_GT_SG_000_B.mp4""""]",4,2
19,,,,,,,,,,,,video-button-response,6,114092,0.0-6.0,,,,,20629,"[""""tsg_comb/TestSeq003_1_GDDW_000_GD_v13_000_A.mp4""""]",4,2
20,913,1530,TRUE,chrome,107.00.00,FALSE,Mac OS,TRUE,30.08.00,TRUE,TRUE,browser-check,0,2025,0.0-0.0,,,,"11/11/2022, 12:01:54",,,,2
20,,,,,,,,,,,,html-button-response,1,4247,0.0-1.0,,,,"11/11/2022, 12:01:56","2218"",",,,2
20,,,,,,,,,,,,html-button-response,2,5783,0.0-2.0,,,,"11/11/2022, 12:01:58",1534,<h2> Are you using headphones right now? </h2>,0,2
21,913,1530,TRUE,chrome,107.00.00,FALSE,Mac OS,TRUE,30.05.00,TRUE,TRUE,browser-check,0,2027,0.0-0.0,,,,"11/11/2022, 12:03:16",,,,2
21,,,,,,,,,,,,html-button-response,1,4102,0.0-1.0,,,,"11/11/2022, 12:03:18","2071"",",,,2
21,,,,,,,,,,,,html-button-response,2,5540,0.0-2.0,,,,"11/11/2022, 12:03:19",1436,<h2> Are you using headphones right now? </h2>,0,2
22,913,1530,TRUE,chrome,107.00.00,FALSE,Mac OS,TRUE,30,TRUE,TRUE,browser-check,0,2022,0.0-0.0,,,,"11/11/2022, 12:12:00",,,,2
22,,,,,,,,,,,,html-button-response,1,4219,0.0-1.0,,,,"11/11/2022, 12:12:03","2193"",",,,2
22,,,,,,,,,,,,html-button-response,2,5930,0.0-2.0,,,,"11/11/2022, 12:12:04",1709,<h2> Are you using headphones right now? </h2>,0,2
22,,,,,,,,,,,,video-button-response,3,27284,0.0-3.0,,,,,21350,"[""""tsg_comb/TestSeq004_4-GD_v13_000-SG_000-A.mp4""""]",4,2
23,2218,1530,TRUE,chrome,107.00.00,FALSE,Mac OS,TRUE,30.15.00,TRUE,TRUE,browser-check,0,2019,0.0-0.0,608718e0a8520f7baac735e7,636e2a29b9410d781bec59f3,0uqgnh27eb0d,"11/11/2022, 12:17:39",,,,2
23,,,,,,,,,,,,html-button-response,1,6623,0.0-1.0,608718e0a8520f7baac735e7,636e2a29b9410d781bec59f3,0uqgnh27eb0d,"11/11/2022, 12:17:43","4588"",",,,2
23,,,,,,,,,,,,html-button-response,2,8319,0.0-2.0,608718e0a8520f7baac735e7,636e2a29b9410d781bec59f3,0uqgnh27eb0d,"11/11/2022, 12:17:45",1694,<h2> Are you using headphones right now? </h2>,0,2
23,,,,,,,,,,,,video-button-response,3,31927,0.0-3.0,608718e0a8520f7baac735e7,636e2a29b9410d781bec59f3,0uqgnh27eb0d,,23604,"[""""tsg_comb/TestSeq005_2-GDDW_000-GD_v13_000-A.mp4""""]",2,2
23,,,,,,,,,,,,video-button-response,4,54951,0.0-4.0,608718e0a8520f7baac735e7,636e2a29b9410d781bec59f3,0uqgnh27eb0d,,23021,"[""""tsg_comb/TestSeq003_4-GDDW_000-GT-B.mp4""""]",1,2
23,,,,,,,,,,,,video-button-response,5,123960,0.0-5.0,608718e0a8520f7baac735e7,636e2a29b9410d781bec59f3,0uqgnh27eb0d,,69006,"[""""tsg_comb/TestSeq004_1-GDDW_000-GD_v13_000-B.mp4""""]",2,2
23,,,,,,,,,,,,video-button-response,6,146431,0.0-6.0,608718e0a8520f7baac735e7,636e2a29b9410d781bec59f3,0uqgnh27eb0d,,22468,"[""""tsg_comb/TestSeq004_7-GDDW_000-SG_000-B.mp4""""]",4,2
23,,,,,,,,,,,,video-button-response,7,393735,0.0-7.0,608718e0a8520f7baac735e7,636e2a29b9410d781bec59f3,0uqgnh27eb0d,,247302,"[""""tsg_comb/TestSeq004_0-GD_v13_000-GT-A.mp4""""]",4,2
23,,,,,,,,,,,,video-button-response,8,397144,0.0-8.0,608718e0a8520f7baac735e7,636e2a29b9410d781bec59f3,0uqgnh27eb0d,,3405,"[""""tsg_comb/TestSeq003_6-GD_v13_000-SG_000-B.mp4""""]",4,2
23,,,,,,,,,,,,video-button-response,9,400671,0.0-9.0,608718e0a8520f7baac735e7,636e2a29b9410d781bec59f3,0uqgnh27eb0d,,3524,"[""""tsg_comb/TestSeq006_9-GDDW_000-GT-A.mp4""""]",4,2
23,,,,,,,,,,,,video-button-response,10,403455,0.0-10.0,608718e0a8520f7baac735e7,636e2a29b9410d781bec59f3,0uqgnh27eb0d,,2781,"[""""attn/attention1.mp4""""]",4,2
23,,,,,,,,,,,,video-button-response,11,407655,0.0-11.0,608718e0a8520f7baac735e7,636e2a29b9410d781bec59f3,0uqgnh27eb0d,,4198,"[""""tsg_comb/TestSeq002_1-GD_v13_000-GT-B.mp4""""]",4,2
23,,,,,,,,,,,,video-button-response,12,410768,0.0-12.0,608718e0a8520f7baac735e7,636e2a29b9410d781bec59f3,0uqgnh27eb0d,,3110,"[""""tsg_comb/TestSeq002_3-GD_v13_000-SG_000-B.mp4""""]",4,2
23,,,,,,,,,,,,video-button-response,13,414007,0.0-13.0,608718e0a8520f7baac735e7,636e2a29b9410d781bec59f3,0uqgnh27eb0d,,3236,"[""""tsg_comb/TestSeq004_6-GT-SG_000-A.mp4""""]",4,2
23,,,,,,,,,,,,video-button-response,14,417344,0.0-14.0,608718e0a8520f7baac735e7,636e2a29b9410d781bec59f3,0uqgnh27eb0d,,3334,"[""""tsg_comb/TestSeq005_0-GT-SG_000-A.mp4""""]",4,2
23,,,,,,,,,,,,video-button-response,15,420711,0.0-15.0,608718e0a8520f7baac735e7,636e2a29b9410d781bec59f3,0uqgnh27eb0d,,3364,"[""""tsg_comb/TestSeq005_4-GDDW_000-GT-A.mp4""""]",4,2
23,,,,,,,,,,,,video-button-response,16,423983,0.0-16.0,608718e0a8520f7baac735e7,636e2a29b9410d781bec59f3,0uqgnh27eb0d,,3269,"[""""tsg_comb/TestSeq005_3-GD_v13_000-GT-B.mp4""""]",4,2
23,,,,,,,,,,,,video-button-response,17,429775,0.0-17.0,608718e0a8520f7baac735e7,636e2a29b9410d781bec59f3,0uqgnh27eb0d,,5789,"[""""tsg_comb/TestSeq006_1-GD_v13_000-GT-A.mp4""""]",4,2
23,,,,,,,,,,,,video-button-response,18,433935,0.0-18.0,608718e0a8520f7baac735e7,636e2a29b9410d781bec59f3,0uqgnh27eb0d,,4157,"[""""tsg_comb/TestSeq002_5-GDDW_000-GT-B.mp4""""]",4,2
23,,,,,,,,,,,,video-button-response,19,440095,0.0-19.0,608718e0a8520f7baac735e7,636e2a29b9410d781bec59f3,0uqgnh27eb0d,,6157,"[""""tsg_comb/TestSeq004_5-GD_v13_000-SG_000-B.mp4""""]",4,2
23,,,,,,,,,,,,video-button-response,20,444919,0.0-20.0,608718e0a8520f7baac735e7,636e2a29b9410d781bec59f3,0uqgnh27eb0d,,4821,"[""""tsg_comb/TestSeq004_3-GDDW_000-SG_000-B.mp4""""]",4,2
23,,,,,,,,,,,,video-button-response,21,458175,0.0-21.0,608718e0a8520f7baac735e7,636e2a29b9410d781bec59f3,0uqgnh27eb0d,,13253,"[""""tsg_comb/TestSeq006_2-GDDW_000-SG_000-B.mp4""""]",4,2
23,,,,,,,,,,,,video-button-response,22,461407,0.0-22.0,608718e0a8520f7baac735e7,636e2a29b9410d781bec59f3,0uqgnh27eb0d,,3229,"[""""tsg_comb/TestSeq006_8-GD_v13_000-SG_000-B.mp4""""]",4,2
23,,,,,,,,,,,,video-button-response,23,467433,0.0-23.0,608718e0a8520f7baac735e7,636e2a29b9410d781bec59f3,0uqgnh27eb0d,,6023,"[""""tsg_comb/TestSeq005_1-GD_v13_000-GT-B.mp4""""]",4,2
23,,,,,,,,,,,,video-button-response,24,473191,0.0-24.0,608718e0a8520f7baac735e7,636e2a29b9410d781bec59f3,0uqgnh27eb0d,,5755,"[""""tsg_comb/TestSeq006_4-GT-SG_000-B.mp4""""]",4,2
23,,,,,,,,,,,,video-button-response,25,480695,0.0-25.0,608718e0a8520f7baac735e7,636e2a29b9410d781bec59f3,0uqgnh27eb0d,,7501,"[""""tsg_comb/TestSeq003_3-GT-SG_000-A.mp4""""]",4,2
23,,,,,,,,,,,,video-button-response,26,492015,0.0-26.0,608718e0a8520f7baac735e7,636e2a29b9410d781bec59f3,0uqgnh27eb0d,,11317,"[""""tsg_comb/TestSeq004_2-GD_v13_000-SG_000-A.mp4""""]",4,2
23,,,,,,,,,,,,video-button-response,27,501224,0.0-27.0,608718e0a8520f7baac735e7,636e2a29b9410d781bec59f3,0uqgnh27eb0d,,9206,"[""""tsg_comb/TestSeq002_2-GT-SG_000-A.mp4""""]",4,2
23,,,,,,,,,,,,video-button-response,28,511575,0.0-28.0,608718e0a8520f7baac735e7,636e2a29b9410d781bec59f3,0uqgnh27eb0d,,10348,"[""""tsg_comb/TestSeq003_5-GD_v13_000-GT-A.mp4""""]",4,2
23,,,,,,,,,,,,video-button-response,29,519239,0.0-29.0,608718e0a8520f7baac735e7,636e2a29b9410d781bec59f3,0uqgnh27eb0d,,7660,"[""""tsg_comb/TestSeq003_2-GDDW_000-GD_v13_000-B.mp4""""]",4,2
23,,,,,,,,,,,,video-button-response,30,532959,0.0-30.0,608718e0a8520f7baac735e7,636e2a29b9410d781bec59f3,0uqgnh27eb0d,,13718,"[""""attn/attention2.mp4""""]",4,2
23,,,,,,,,,,,,video-button-response,31,543759,0.0-31.0,608718e0a8520f7baac735e7,636e2a29b9410d781bec59f3,0uqgnh27eb0d,,10797,"[""""tsg_comb/TestSeq006_3-GDDW_000-GD_v13_000-A.mp4""""]",4,2
23,,,,,,,,,,,,video-button-response,32,547375,0.0-32.0,608718e0a8520f7baac735e7,636e2a29b9410d781bec59f3,0uqgnh27eb0d,,3613,"[""""tsg_comb/TestSeq006_0-GDDW_000-SG_000-B.mp4""""]",4,2
23,,,,,,,,,,,,video-button-response,33,551831,0.0-33.0,608718e0a8520f7baac735e7,636e2a29b9410d781bec59f3,0uqgnh27eb0d,,4452,"[""""tsg_comb/TestSeq002_4-GDDW_000-GT-A.mp4""""]",4,2
23,,,,,,,,,,,,video-button-response,34,557303,0.0-34.0,608718e0a8520f7baac735e7,636e2a29b9410d781bec59f3,0uqgnh27eb0d,,5469,"[""""tsg_comb/TestSeq006_6-GDDW_000-GT-B.mp4""""]",4,2
23,,,,,,,,,,,,video-button-response,35,562223,0.0-35.0,608718e0a8520f7baac735e7,636e2a29b9410d781bec59f3,0uqgnh27eb0d,,4917,"[""""tsg_comb/TestSeq002_6-GD_v13_000-SG_000-A.mp4""""]",4,2
23,,,,,,,,,,,,video-button-response,36,566488,0.0-36.0,608718e0a8520f7baac735e7,636e2a29b9410d781bec59f3,0uqgnh27eb0d,,4262,"[""""tsg_comb/TestSeq006_7-GDDW_000-SG_000-A.mp4""""]",4,2
23,,,,,,,,,,,,video-button-response,37,571063,0.0-37.0,608718e0a8520f7baac735e7,636e2a29b9410d781bec59f3,0uqgnh27eb0d,,4572,"[""""tsg_comb/TestSeq004_4-GDDW_000-GD_v13_000-A.mp4""""]",4,2
23,,,,,,,,,,,,video-button-response,38,574711,0.0-38.0,608718e0a8520f7baac735e7,636e2a29b9410d781bec59f3,0uqgnh27eb0d,,3646,"[""""tsg_comb/TestSeq003_0-GDDW_000-GD_v13_000-B.mp4""""]",4,2
23,,,,,,,,,,,,video-button-response,39,579407,0.0-39.0,608718e0a8520f7baac735e7,636e2a29b9410d781bec59f3,0uqgnh27eb0d,,4694,"[""""tsg_comb/TestSeq006_5-GT-SG_000-A.mp4""""]",4,2
23,,,,,,,,,,,,video-button-response,40,583735,0.0-40.0,608718e0a8520f7baac735e7,636e2a29b9410d781bec59f3,0uqgnh27eb0d,,4324,"[""""tsg_comb/TestSeq003_1-GDDW_000-SG_000-A.mp4""""]",4,2
23,,,,,,,,,,,,html-button-response,41,586006,0.0-41.0,608718e0a8520f7baac735e7,636e2a29b9410d781bec59f3,0uqgnh27eb0d,"11/11/2022, 12:27:23",2269,<h2> Were you wearing <b> headphones </b> for the <b>entire duration </b> of this test? </h2>,0,2
24,1855,981,TRUE,chrome,107.00.00,FALSE,Windows 10,TRUE,60.44.00,FALSE,TRUE,browser-check,0,999,0.0-0.0,603cdf727dc2aaaf78665c7a,636e2a29b9410d781bec59f3,636e329d32a40aec0fa76419,"11/11/2022, 11:31:49",,,,2
24,,,,,,,,,,,,html-button-response,1,8082,0.0-1.0,603cdf727dc2aaaf78665c7a,636e2a29b9410d781bec59f3,636e329d32a40aec0fa76419,"11/11/2022, 11:31:56","7074"",",,,2
24,,,,,,,,,,,,html-button-response,2,9527,0.0-2.0,603cdf727dc2aaaf78665c7a,636e2a29b9410d781bec59f3,636e329d32a40aec0fa76419,"11/11/2022, 11:31:57",1443,<h2> Are you using headphones right now? </h2>,0,2
25,1280,577,TRUE,chrome,107.00.00,FALSE,Windows 10,TRUE,59.06.00,TRUE,TRUE,browser-check,0,2354,0.0-0.0,5f197b9dbaac2a048671d5a0,636e2a29b9410d781bec59f3,636e32b31a2f1e1c93e5eb53,"11/11/2022, 11:32:15",,,,2
25,,,,,,,,,,,,video-button-response,3,32611,0.0-3.0,603cdf727dc2aaaf78665c7a,636e2a29b9410d781bec59f3,636e329d32a40aec0fa76419,,23080,"[""""tsg_comb/TestSeq003_3-GDDW_000-GT-A.mp4""""]",4,2
25,,,,,,,,,,,,video-button-response,4,58141,0.0-4.0,603cdf727dc2aaaf78665c7a,636e2a29b9410d781bec59f3,636e329d32a40aec0fa76419,,25527,"[""""tsg_comb/TestSeq004_7-GD_v13_000-SG_000-B.mp4""""]",4,2
25,,,,,,,,,,,,html-button-response,1,49061,0.0-1.0,5f197b9dbaac2a048671d5a0,636e2a29b9410d781bec59f3,636e32b31a2f1e1c93e5eb53,"11/11/2022, 11:33:02","46690"",",,,2
25,,,,,,,,,,,,video-button-response,5,79023,0.0-5.0,603cdf727dc2aaaf78665c7a,636e2a29b9410d781bec59f3,636e329d32a40aec0fa76419,,20880,"[""""tsg_comb/TestSeq004_5-GD_v13_000-GT-B.mp4""""]",0,2
25,,,,,,,,,,,,html-button-response,2,53654,0.0-2.0,5f197b9dbaac2a048671d5a0,636e2a29b9410d781bec59f3,636e32b31a2f1e1c93e5eb53,"11/11/2022, 11:33:06",4589,<h2> Are you using headphones right now? </h2>,0,2
26,1183,927,TRUE,chrome,107.00.00,FALSE,Windows 10,TRUE,61.17.00,TRUE,TRUE,browser-check,0,999,0.0-0.0,611d0318ed334b8a75d2b79d,636e2a29b9410d781bec59f3,636e32f8f21ca5b5deb6c3e7,"11/11/2022, 11:33:07 AM",,,,2
27,1488,794,TRUE,chrome,106.00.00,FALSE,Chrome OS,TRUE,59.59.00,TRUE,TRUE,browser-check,0,1047,0.0-0.0,5ea616a090d52b61615dfb3b,636e2a29b9410d781bec59f3,636e32f6aa14c1ffe7f606af,"11/11/2022, 11:33:16",,,,2
27,,,,,,,,,,,,html-button-response,1,5004,0.0-1.0,5ea616a090d52b61615dfb3b,636e2a29b9410d781bec59f3,636e32f6aa14c1ffe7f606af,"11/11/2022, 11:33:20","3937"",",,,2
27,,,,,,,,,,,,html-button-response,2,7135,0.0-2.0,5ea616a090d52b61615dfb3b,636e2a29b9410d781bec59f3,636e32f6aa14c1ffe7f606af,"11/11/2022, 11:33:22",2123,<h2> Are you using headphones right now? </h2>,0,2
27,,,,,,,,,,,,video-button-response,6,96875,0.0-6.0,603cdf727dc2aaaf78665c7a,636e2a29b9410d781bec59f3,636e329d32a40aec0fa76419,,17850,"[""""tsg_comb/TestSeq006_1-GDDW_000-SG_000-A.mp4""""]",0,2
27,,,,,,,,,,,,video-button-response,3,78381,0.0-3.0,5f197b9dbaac2a048671d5a0,636e2a29b9410d781bec59f3,636e32b31a2f1e1c93e5eb53,,24711,"[""""tsg_comb/TestSeq005_1-GT-SG_000-B.mp4""""]",4,2
27,,,,,,,,,,,,video-button-response,7,110335,0.0-7.0,603cdf727dc2aaaf78665c7a,636e2a29b9410d781bec59f3,636e329d32a40aec0fa76419,,13458,"[""""tsg_comb/TestSeq006_8-GT-SG_000-B.mp4""""]",4,2
27,,,,,,,,,,,,html-button-response,1,34255,0.0-1.0,611d0318ed334b8a75d2b79d,636e2a29b9410d781bec59f3,636e32f8f21ca5b5deb6c3e7,"11/11/2022, 11:33:41 AM","33240"",",,,2
27,,,,,,,,,,,,video-button-response,3,34219,0.0-3.0,5ea616a090d52b61615dfb3b,636e2a29b9410d781bec59f3,636e32f6aa14c1ffe7f606af,,27057,"[""""tsg_comb/TestSeq004_2-GD_v13_000-SG_000-A.mp4""""]",3,2
27,,,,,,,,,,,,html-button-response,2,35748,0.0-2.0,611d0318ed334b8a75d2b79d,636e2a29b9410d781bec59f3,636e32f8f21ca5b5deb6c3e7,"11/11/2022, 11:33:42 AM",1490,<h2> Are you using headphones right now? </h2>,0,2
27,,,,,,,,,,,,video-button-response,8,128024,0.0-8.0,603cdf727dc2aaaf78665c7a,636e2a29b9410d781bec59f3,636e329d32a40aec0fa76419,,17686,"[""""tsg_comb/TestSeq002_1-GT-SG_000-B.mp4""""]",1,2
27,,,,,,,,,,,,video-button-response,4,100428,0.0-4.0,5f197b9dbaac2a048671d5a0,636e2a29b9410d781bec59f3,636e32b31a2f1e1c93e5eb53,,22042,"[""""tsg_comb/TestSeq005_4-GDDW_000-SG_000-A.mp4""""]",3,2
27,,,,,,,,,,,,video-button-response,9,135852,0.0-9.0,603cdf727dc2aaaf78665c7a,636e2a29b9410d781bec59f3,636e329d32a40aec0fa76419,,7826,"[""""attn/attention1.mp4""""]",4,2
27,,,,,,,,,,,,video-button-response,3,58464,0.0-3.0,611d0318ed334b8a75d2b79d,636e2a29b9410d781bec59f3,636e32f8f21ca5b5deb6c3e7,,22713,"[""""tsg_comb/TestSeq004_3-GT-SG_000-B.mp4""""]",4,2
27,,,,,,,,,,,,video-button-response,4,62243,0.0-4.0,5ea616a090d52b61615dfb3b,636e2a29b9410d781bec59f3,636e32f6aa14c1ffe7f606af,,28017,"[""""tsg_comb/TestSeq003_1-GT-SG_000-A.mp4""""]",2,2
27,,,,,,,,,,,,video-button-response,5,124023,0.0-5.0,5f197b9dbaac2a048671d5a0,636e2a29b9410d781bec59f3,636e32b31a2f1e1c93e5eb53,,23589,"[""""tsg_comb/TestSeq006_6-GD_v13_000-SG_000-B.mp4""""]",1,2
27,,,,,,,,,,,,video-button-response,10,165193,0.0-10.0,603cdf727dc2aaaf78665c7a,636e2a29b9410d781bec59f3,636e329d32a40aec0fa76419,,29339,"[""""tsg_comb/TestSeq003_5-GDDW_000-SG_000-A.mp4""""]",3,2
27,,,,,,,,,,,,video-button-response,4,84126,0.0-4.0,611d0318ed334b8a75d2b79d,636e2a29b9410d781bec59f3,636e32f8f21ca5b5deb6c3e7,,25659,"[""""tsg_comb/TestSeq003_0-GDDW_000-SG_000-B.mp4""""]",2,2
28,772,1306,TRUE,chrome,106.00.00,FALSE,Mac OS,TRUE,05.45,TRUE,TRUE,browser-check,0,11042,0.0-0.0,5e3810e4b575a301801eff16,636e2a29b9410d781bec59f3,636e333f362cf2eb577f9d6a,"11/11/2022, 11:34:41",,,,2
27,,,,,,,,,,,,video-button-response,5,84239,0.0-5.0,5ea616a090d52b61615dfb3b,636e2a29b9410d781bec59f3,636e32f6aa14c1ffe7f606af,,21987,"[""""tsg_comb/TestSeq006_4-GDDW_000-SG_000-B.mp4""""]",1,2
27,,,,,,,,,,,,video-button-response,6,146070,0.0-6.0,5f197b9dbaac2a048671d5a0,636e2a29b9410d781bec59f3,636e32b31a2f1e1c93e5eb53,,22041,"[""""tsg_comb/TestSeq006_2-GD_v13_000-SG_000-B.mp4""""]",3,2
27,,,,,,,,,,,,video-button-response,11,185024,0.0-11.0,603cdf727dc2aaaf78665c7a,636e2a29b9410d781bec59f3,636e329d32a40aec0fa76419,,19828,"[""""tsg_comb/TestSeq005_4-GDDW_000-GD_v13_000-A.mp4""""]",3,2
27,,,,,,,,,,,,html-button-response,1,29104,0.0-1.0,5e3810e4b575a301801eff16,636e2a29b9410d781bec59f3,636e333f362cf2eb577f9d6a,"11/11/2022, 11:34:59","18050"",",,,2
27,,,,,,,,,,,,video-button-response,6,105358,0.0-6.0,5ea616a090d52b61615dfb3b,636e2a29b9410d781bec59f3,636e32f6aa14c1ffe7f606af,,21113,"[""""tsg_comb/TestSeq005_1-GDDW_000-GD_v13_000-B.mp4""""]",1,2
27,,,,,,,,,,,,video-button-response,5,106718,0.0-5.0,611d0318ed334b8a75d2b79d,636e2a29b9410d781bec59f3,636e32f8f21ca5b5deb6c3e7,,22589,"[""""tsg_comb/TestSeq003_2-GD_v13_000-SG_000-B.mp4""""]",4,2
27,,,,,,,,,,,,html-button-response,2,33245,0.0-2.0,5e3810e4b575a301801eff16,636e2a29b9410d781bec59f3,636e333f362cf2eb577f9d6a,"11/11/2022, 11:35:03",4139,<h2> Are you using headphones right now? </h2>,0,2
27,,,,,,,,,,,,video-button-response,7,168235,0.0-7.0,5f197b9dbaac2a048671d5a0,636e2a29b9410d781bec59f3,636e32b31a2f1e1c93e5eb53,,22160,"[""""tsg_comb/TestSeq004_6-GD_v13_000-GT-A.mp4""""]",1,2
27,,,,,,,,,,,,video-button-response,12,205830,0.0-12.0,603cdf727dc2aaaf78665c7a,636e2a29b9410d781bec59f3,636e329d32a40aec0fa76419,,20804,"[""""tsg_comb/TestSeq003_4-GD_v13_000-GT-B.mp4""""]",0,2
